time,channel_1,channel_2,channel_3,channel_4,channel_5,channel_6,channel_7,channel_8,orientation_x,orientation_y,orientation_z,orientation_w,acceleration_x,acceleration_y,acceleration_z,gyroscope_x,gyroscope_y,gyroscope_z
0.005,1.0,0.0,-1.0,1.0,2.0,2.0,-1.0,2.0,0.29986572265625,-0.19573974609375,-0.82366943359375,0.439697265625,-0.3349609375,0.544921875,0.8076171875,-9.375,1.4375,6.3125
0.01,1.0,0.0,-1.0,1.0,2.0,2.0,-1.0,2.0,0.2984619140625,-0.1942138671875,-0.82366943359375,0.4412841796875,-0.33154296875,0.552734375,0.7890625,-10.125,-0.5,7.75
0.015,-1.0,0.0,0.0,-3.0,-12.0,-2.0,-1.0,-2.0,0.2984619140625,-0.1942138671875,-0.82366943359375,0.4412841796875,-0.33154296875,0.552734375,0.7890625,-10.125,-0.5,7.75
0.02,-1.0,0.0,0.0,-3.0,-12.0,-2.0,-1.0,-2.0,0.2967529296875,-0.19329833984375,-0.82366943359375,0.44287109375,-0.31640625,0.56787109375,0.80810546875,-8.125,-2.75,8.0
0.025,0.0,0.0,-1.0,-3.0,5.0,-3.0,-1.0,-1.0,0.29559326171875,-0.19342041015625,-0.82354736328125,0.44390869140625,-0.32470703125,0.59033203125,0.78125,-3.375,-4.25,6.8125
0.030000000000000002,0.0,-2.0,0.0,0.0,0.0,-3.0,-1.0,-2.0,0.294189453125,-0.19354248046875,-0.8236083984375,0.444580078125,-0.337890625,0.57861328125,0.78564453125,-2.75,-6.9375,5.75
0.035,0.0,-1.0,-2.0,-1.0,-8.0,0.0,1.0,0.0,0.294189453125,-0.19354248046875,-0.8236083984375,0.444580078125,-0.337890625,0.57861328125,0.78564453125,-2.75,-6.9375,5.75
0.04,0.0,-1.0,-1.0,-1.0,-1.0,-3.0,-1.0,-1.0,0.294189453125,-0.19354248046875,-0.8236083984375,0.444580078125,-0.337890625,0.57861328125,0.78564453125,-2.75,-6.9375,5.75
0.045,0.0,-1.0,-1.0,-1.0,-1.0,-3.0,-1.0,-1.0,0.29248046875,-0.1942138671875,-0.8238525390625,0.445068359375,-0.31640625,0.5537109375,0.7880859375,0.625,-9.3125,5.6875
0.049999999999999996,-5.0,-2.0,-3.0,-2.0,0.0,-2.0,0.0,0.0,0.290771484375,-0.19580078125,-0.823974609375,0.4451904296875,-0.3037109375,0.53857421875,0.77978515625,5.875,-11.375,5.5625
0.05499999999999999,-2.0,-1.0,-4.0,-1.0,8.0,-2.0,-1.0,-3.0,0.28924560546875,-0.19842529296875,-0.823974609375,0.44500732421875,-0.279296875,0.5673828125,0.77783203125,10.75,-12.75,4.8125
0.05999999999999999,0.0,1.0,1.0,1.0,-1.0,-1.0,-1.0,2.0,0.28924560546875,-0.19842529296875,-0.823974609375,0.44500732421875,-0.279296875,0.5673828125,0.77783203125,10.75,-12.75,4.8125
0.06499999999999999,-2.0,-1.0,0.0,-4.0,-3.0,-1.0,0.0,-2.0,0.2877197265625,-0.201416015625,-0.823974609375,0.4447021484375,-0.2607421875,0.60546875,0.75732421875,9.9375,-13.125,3.25
0.06999999999999999,0.0,-1.0,-3.0,-5.0,-14.0,2.0,-1.0,-1.0,0.2877197265625,-0.201416015625,-0.823974609375,0.4447021484375,-0.2607421875,0.60546875,0.75732421875,9.9375,-13.125,3.25
0.075,0.0,3.0,1.0,-2.0,-9.0,1.0,-2.0,0.0,0.28582763671875,-0.2039794921875,-0.82421875,0.4443359375,-0.2470703125,0.62548828125,0.73095703125,4.6875,-14.375,1.5625
0.08,-1.0,-2.0,-3.0,-5.0,0.0,-6.0,-2.0,-3.0,0.28582763671875,-0.2039794921875,-0.82421875,0.4443359375,-0.2470703125,0.62548828125,0.73095703125,4.6875,-14.375,1.5625
0.085,0.0,-1.0,-1.0,-7.0,5.0,1.0,-2.0,2.0,0.28582763671875,-0.2039794921875,-0.82421875,0.4443359375,-0.2470703125,0.62548828125,0.73095703125,4.6875,-14.375,1.5625
0.09000000000000001,0.0,-1.0,-1.0,-7.0,5.0,1.0,-2.0,2.0,0.28369140625,-0.20599365234375,-0.82464599609375,0.44390869140625,-0.23388671875,0.611328125,0.72119140625,1.6875,-14.5,0.1875
0.09500000000000001,0.0,0.0,-1.0,0.0,-1.0,-1.0,-2.0,-1.0,0.28369140625,-0.20599365234375,-0.82464599609375,0.44390869140625,-0.23388671875,0.611328125,0.72119140625,1.6875,-14.5,0.1875
0.10000000000000002,-1.0,-3.0,-3.0,-9.0,-9.0,-4.0,-4.0,-2.0,0.28369140625,-0.20599365234375,-0.82464599609375,0.44390869140625,-0.23388671875,0.611328125,0.72119140625,1.6875,-14.5,0.1875
0.10500000000000002,-1.0,-3.0,-3.0,-9.0,-9.0,-4.0,-4.0,-2.0,0.28173828125,-0.2076416015625,-0.82513427734375,0.4434814453125,-0.23095703125,0.60986328125,0.72119140625,0.875,-12.8125,-0.875
0.11000000000000003,-1.0,-1.0,-1.0,1.0,1.0,0.0,-1.0,-2.0,0.28173828125,-0.2076416015625,-0.82513427734375,0.4434814453125,-0.23095703125,0.60986328125,0.72119140625,0.875,-12.8125,-0.875
0.11500000000000003,-4.0,0.0,1.0,-6.0,-8.0,0.0,1.0,-2.0,0.28021240234375,-0.2093505859375,-0.82550048828125,0.44293212890625,-0.220703125,0.60888671875,0.7080078125,1.9375,-10.6875,-1.5625
0.12000000000000004,0.0,-1.0,-3.0,1.0,9.0,-1.0,-3.0,-1.0,0.28021240234375,-0.2093505859375,-0.82550048828125,0.44293212890625,-0.220703125,0.60888671875,0.7080078125,1.9375,-10.6875,-1.5625
0.12500000000000003,0.0,-1.0,-3.0,1.0,9.0,-1.0,-3.0,-1.0,0.28021240234375,-0.2093505859375,-0.82550048828125,0.44293212890625,-0.220703125,0.60888671875,0.7080078125,1.9375,-10.6875,-1.5625
0.13000000000000003,-3.0,0.0,0.0,0.0,-3.0,-1.0,-4.0,0.0,0.27935791015625,-0.21075439453125,-0.8258056640625,0.44232177734375,-0.23291015625,0.6259765625,0.69580078125,0.8125,-7.9375,-2.6875
0.13500000000000004,-3.0,0.0,0.0,0.0,-3.0,-1.0,-4.0,0.0,0.27935791015625,-0.21075439453125,-0.8258056640625,0.44232177734375,-0.23291015625,0.6259765625,0.69580078125,0.8125,-7.9375,-2.6875
0.14000000000000004,0.0,-3.0,0.0,7.0,10.0,4.0,0.0,0.0,0.27935791015625,-0.21075439453125,-0.8258056640625,0.44232177734375,-0.23291015625,0.6259765625,0.69580078125,0.8125,-7.9375,-2.6875
0.14500000000000005,-2.0,-1.0,-1.0,-6.0,0.0,-1.0,1.0,-1.0,0.27886962890625,-0.21148681640625,-0.82611083984375,0.441650390625,-0.24853515625,0.61376953125,0.68408203125,-1.125,-5.375,-3.6875
0.15000000000000005,-2.0,-1.0,-2.0,2.0,7.0,-2.0,0.0,-2.0,0.278564453125,-0.21209716796875,-0.826416015625,0.4410400390625,-0.24560546875,0.60546875,0.70654296875,0.3125,-3.75,-3.75
0.15500000000000005,-2.0,-1.0,-2.0,2.0,7.0,-2.0,0.0,-2.0,0.278564453125,-0.21209716796875,-0.826416015625,0.4410400390625,-0.24560546875,0.60546875,0.70654296875,0.3125,-3.75,-3.75
0.16000000000000006,0.0,-2.0,1.0,0.0,-3.0,-2.0,-1.0,0.0,0.279296875,-0.2127685546875,-0.82647705078125,0.44012451171875,-0.2763671875,0.62744140625,0.7109375,2.75,-0.375,-4.75
0.16500000000000006,0.0,-2.0,1.0,0.0,-3.0,-2.0,-1.0,0.0,0.279296875,-0.2127685546875,-0.82647705078125,0.44012451171875,-0.2763671875,0.62744140625,0.7109375,2.75,-0.375,-4.75
0.17000000000000007,-1.0,-2.0,-1.0,8.0,0.0,-2.0,-2.0,0.0,0.279296875,-0.2127685546875,-0.82647705078125,0.44012451171875,-0.2763671875,0.62744140625,0.7109375,2.75,-0.375,-4.75
0.17500000000000007,-1.0,-2.0,-1.0,8.0,0.0,-2.0,-2.0,0.0,0.28070068359375,-0.21331787109375,-0.82647705078125,0.43902587890625,-0.30859375,0.62646484375,0.69287109375,4.0625,1.1875,-5.4375
0.18000000000000008,-3.0,-1.0,0.0,-3.0,-2.0,3.0,-1.0,0.0,0.2818603515625,-0.2137451171875,-0.82647705078125,0.43798828125,-0.30322265625,0.61328125,0.69287109375,3.6875,0.75,-4.875
0.18500000000000008,-3.0,-1.0,0.0,-3.0,-2.0,3.0,-1.0,0.0,0.2818603515625,-0.2137451171875,-0.82647705078125,0.43798828125,-0.30322265625,0.61328125,0.69287109375,3.6875,0.75,-4.875
0.19000000000000009,-2.0,1.0,1.0,1.0,-8.0,-4.0,-1.0,1.0,0.28326416015625,-0.21466064453125,-0.82635498046875,0.43682861328125,-0.30078125,0.6083984375,0.697265625,7.3125,1.0,-4.6875
0.1950000000000001,1.0,-3.0,-4.0,8.0,26.0,4.0,2.0,-1.0,0.28326416015625,-0.21466064453125,-0.82635498046875,0.43682861328125,-0.30078125,0.6083984375,0.697265625,7.3125,1.0,-4.6875
0.2000000000000001,-1.0,0.0,0.0,0.0,9.0,-2.0,-2.0,-2.0,0.28515625,-0.2161865234375,-0.8260498046875,0.43548583984375,-0.3173828125,0.609375,0.7080078125,12.625,1.5625,-4.3125
0.2050000000000001,-1.0,0.0,0.0,0.0,9.0,-2.0,-2.0,-2.0,0.28515625,-0.2161865234375,-0.8260498046875,0.43548583984375,-0.3173828125,0.609375,0.7080078125,12.625,1.5625,-4.3125
0.2100000000000001,-1.0,-4.0,-2.0,-5.0,-9.0,-3.0,-1.0,0.0,0.28729248046875,-0.21807861328125,-0.8255615234375,0.43402099609375,-0.3271484375,0.60498046875,0.7099609375,16.1875,1.375,-3.375
0.2150000000000001,-2.0,2.0,-3.0,-5.0,-16.0,-2.0,-2.0,-1.0,0.28985595703125,-0.2205810546875,-0.824951171875,0.4322509765625,-0.34130859375,0.591796875,0.7109375,22.0625,1.375,-2.9375
0.2200000000000001,-1.0,-1.0,1.0,-2.0,-6.0,-2.0,0.0,0.0,0.28985595703125,-0.2205810546875,-0.824951171875,0.4322509765625,-0.34130859375,0.591796875,0.7109375,22.0625,1.375,-2.9375
0.22500000000000012,-1.0,-3.0,1.0,5.0,10.0,0.0,0.0,-2.0,0.2930908203125,-0.2242431640625,-0.82391357421875,0.43011474609375,-0.36083984375,0.60693359375,0.70703125,29.9375,1.0625,-2.4375
0.23000000000000012,-1.0,-1.0,-1.0,-2.0,-5.0,-4.0,-2.0,-1.0,0.29681396484375,-0.22857666015625,-0.82269287109375,0.42767333984375,-0.37841796875,0.62109375,0.68896484375,34.3125,0.875,-2.0625
0.23500000000000013,-1.0,-1.0,-1.0,-2.0,-5.0,-4.0,-2.0,-1.0,0.29681396484375,-0.22857666015625,-0.82269287109375,0.42767333984375,-0.37841796875,0.62109375,0.68896484375,34.3125,0.875,-2.0625
0.24000000000000013,-1.0,-1.0,0.0,-1.0,3.0,0.0,0.0,-2.0,0.29681396484375,-0.22857666015625,-0.82269287109375,0.42767333984375,-0.37841796875,0.62109375,0.68896484375,34.3125,0.875,-2.0625
0.24500000000000013,-2.0,-3.0,1.0,-1.0,-6.0,0.0,-1.0,-2.0,0.30047607421875,-0.23272705078125,-0.821533203125,0.425048828125,-0.4091796875,0.60205078125,0.6943359375,35.4375,-0.375,-1.5625
0.2500000000000001,-2.0,-3.0,1.0,-1.0,-6.0,0.0,-1.0,-2.0,0.303955078125,-0.2369384765625,-0.82049560546875,0.42230224609375,-0.42138671875,0.54833984375,0.67431640625,38.125,-2.4375,-0.125
0.2550000000000001,-2.0,-3.0,1.0,-1.0,-6.0,0.0,-1.0,-2.0,0.303955078125,-0.2369384765625,-0.82049560546875,0.42230224609375,-0.42138671875,0.54833984375,0.67431640625,38.125,-2.4375,-0.125
0.2600000000000001,-1.0,-2.0,-4.0,-1.0,-3.0,-2.0,-1.0,1.0,0.303955078125,-0.2369384765625,-0.82049560546875,0.42230224609375,-0.42138671875,0.54833984375,0.67431640625,38.125,-2.4375,-0.125
0.2650000000000001,-1.0,2.0,-2.0,1.0,7.0,-1.0,0.0,-2.0,0.30718994140625,-0.2423095703125,-0.8192138671875,0.4193115234375,-0.41455078125,0.51953125,0.66943359375,45.4375,-5.75,2.0625
0.27000000000000013,-4.0,-1.0,-7.0,-3.0,6.0,-1.0,-1.0,0.0,0.310302734375,-0.2496337890625,-0.81744384765625,0.41619873046875,-0.3818359375,0.54931640625,0.6708984375,54.75,-8.4375,4.3125
0.27500000000000013,-3.0,-2.0,-3.0,-7.0,-4.0,-3.0,-3.0,-1.0,0.31341552734375,-0.2584228515625,-0.81512451171875,0.41302490234375,-0.35107421875,0.6318359375,0.6630859375,59.5625,-9.6875,5.375
0.28000000000000014,-1.0,0.0,2.0,3.0,3.0,-1.0,-4.0,-2.0,0.31341552734375,-0.2584228515625,-0.81512451171875,0.41302490234375,-0.35107421875,0.6318359375,0.6630859375,59.5625,-9.6875,5.375
0.28500000000000014,1.0,-1.0,-9.0,-1.0,11.0,0.0,0.0,-2.0,0.31622314453125,-0.26629638671875,-0.81304931640625,0.40997314453125,-0.341796875,0.68359375,0.66259765625,52.375,-8.3125,3.25
0.29000000000000015,1.0,-1.0,-9.0,-1.0,11.0,0.0,0.0,-2.0,0.31622314453125,-0.26629638671875,-0.81304931640625,0.40997314453125,-0.341796875,0.68359375,0.66259765625,52.375,-8.3125,3.25
0.29500000000000015,0.0,-8.0,1.0,0.0,-7.0,1.0,-1.0,1.0,0.31622314453125,-0.26629638671875,-0.81304931640625,0.40997314453125,-0.341796875,0.68359375,0.66259765625,52.375,-8.3125,3.25
0.30000000000000016,0.0,-8.0,1.0,0.0,-7.0,1.0,-1.0,1.0,0.31842041015625,-0.272216796875,-0.8116455078125,0.40716552734375,-0.33447265625,0.6865234375,0.681640625,42.5,-6.5625,-0.375
0.30500000000000016,0.0,0.0,0.0,-4.0,-7.0,-3.0,-1.0,-2.0,0.31842041015625,-0.272216796875,-0.8116455078125,0.40716552734375,-0.33447265625,0.6865234375,0.681640625,42.5,-6.5625,-0.375
0.31000000000000016,0.0,0.0,0.0,-4.0,-7.0,-3.0,-1.0,-2.0,0.32025146484375,-0.27679443359375,-0.8106689453125,0.40447998046875,-0.3095703125,0.68115234375,0.71044921875,36.3125,-3.6875,-3.4375
0.31500000000000017,0.0,0.0,1.0,0.0,6.0,2.0,0.0,-1.0,0.32025146484375,-0.27679443359375,-0.8106689453125,0.40447998046875,-0.3095703125,0.68115234375,0.71044921875,36.3125,-3.6875,-3.4375
0.3200000000000002,0.0,0.0,1.0,0.0,6.0,2.0,0.0,-1.0,0.32025146484375,-0.27679443359375,-0.8106689453125,0.40447998046875,-0.3095703125,0.68115234375,0.71044921875,36.3125,-3.6875,-3.4375
0.3250000000000002,-1.0,3.0,1.0,-1.0,-4.0,-3.0,-1.0,1.0,0.32208251953125,-0.2801513671875,-0.80999755859375,0.402099609375,-0.287109375,0.70556640625,0.6982421875,28.75,-0.3125,-6.6875
0.3300000000000002,0.0,0.0,-2.0,-2.0,-1.0,-2.0,-2.0,-1.0,0.32342529296875,-0.28173828125,-0.8099365234375,0.40008544921875,-0.28369140625,0.69970703125,0.693359375,18.0,1.3125,-9.0
0.3350000000000002,0.0,0.0,-2.0,-2.0,-1.0,-2.0,-2.0,-1.0,0.32342529296875,-0.28173828125,-0.8099365234375,0.40008544921875,-0.28369140625,0.69970703125,0.693359375,18.0,1.3125,-9.0
0.3400000000000002,-1.0,-10.0,-3.0,3.0,0.0,1.0,-1.0,-1.0,0.32342529296875,-0.28173828125,-0.8099365234375,0.40008544921875,-0.28369140625,0.69970703125,0.693359375,18.0,1.3125,-9.0
0.3450000000000002,-1.0,-10.0,-3.0,3.0,0.0,1.0,-1.0,-1.0,0.32440185546875,-0.2825927734375,-0.8101806640625,0.398193359375,-0.27197265625,0.71728515625,0.6806640625,11.75,1.4375,-10.75
0.3500000000000002,2.0,2.0,0.0,4.0,-4.0,-2.0,-2.0,-1.0,0.32440185546875,-0.2825927734375,-0.8101806640625,0.398193359375,-0.27197265625,0.71728515625,0.6806640625,11.75,1.4375,-10.75
0.3550000000000002,-2.0,-2.0,0.0,-5.0,-3.0,1.0,0.0,-1.0,0.32440185546875,-0.2825927734375,-0.8101806640625,0.398193359375,-0.27197265625,0.71728515625,0.6806640625,11.75,1.4375,-10.75
0.3600000000000002,-2.0,-4.0,0.0,4.0,1.0,0.0,1.0,-2.0,0.32489013671875,-0.28271484375,-0.81072998046875,0.39654541015625,-0.2626953125,0.72802734375,0.662109375,4.75,0.75,-11.6875
0.3650000000000002,1.0,-2.0,-3.0,-4.0,-5.0,-2.0,0.0,1.0,0.32464599609375,-0.28204345703125,-0.8116455078125,0.3953857421875,-0.25048828125,0.73486328125,0.66845703125,-1.75,-0.0625,-11.5
0.3700000000000002,1.0,0.0,0.0,1.0,3.0,-1.0,-2.0,0.0,0.32464599609375,-0.28204345703125,-0.8116455078125,0.3953857421875,-0.25048828125,0.73486328125,0.66845703125,-1.75,-0.0625,-11.5
0.3750000000000002,1.0,0.0,0.0,1.0,3.0,-1.0,-2.0,0.0,0.32391357421875,-0.28106689453125,-0.81268310546875,0.39453125,-0.23876953125,0.7451171875,0.66015625,-6.375,-0.625,-11.0
0.3800000000000002,-1.0,3.0,-1.0,-2.0,2.0,-2.0,0.0,-1.0,0.32281494140625,-0.27935791015625,-0.81390380859375,0.39410400390625,-0.244140625,0.72412109375,0.6669921875,-10.8125,-0.8125,-9.625
0.38500000000000023,2.0,-4.0,-3.0,-2.0,-4.0,-3.0,0.0,0.0,0.32281494140625,-0.27935791015625,-0.81390380859375,0.39410400390625,-0.244140625,0.72412109375,0.6669921875,-10.8125,-0.8125,-9.625
0.39000000000000024,-2.0,-2.0,-1.0,3.0,11.0,0.0,0.0,-2.0,0.32281494140625,-0.27935791015625,-0.81390380859375,0.39410400390625,-0.244140625,0.72412109375,0.6669921875,-10.8125,-0.8125,-9.625
0.39500000000000024,-2.0,-2.0,-1.0,3.0,11.0,0.0,0.0,-2.0,0.32281494140625,-0.27935791015625,-0.81390380859375,0.39410400390625,-0.244140625,0.72412109375,0.6669921875,-10.8125,-0.8125,-9.625
0.40000000000000024,-2.0,1.0,0.0,-1.0,-6.0,1.0,-1.0,1.0,0.31982421875,-0.2762451171875,-0.8160400390625,0.394287109375,-0.23876953125,0.724609375,0.64794921875,-14.0,-3.0,-4.3125
0.40500000000000025,-2.0,-3.0,-2.0,-1.0,8.0,-1.0,-1.0,-2.0,0.31982421875,-0.2762451171875,-0.8160400390625,0.394287109375,-0.23876953125,0.724609375,0.64794921875,-14.0,-3.0,-4.3125
0.41000000000000025,0.0,0.0,-3.0,-2.0,-1.0,-1.0,-4.0,-3.0,0.317626953125,-0.27459716796875,-0.81695556640625,0.39532470703125,-0.22119140625,0.75341796875,0.634765625,-19.125,-3.0625,-2.125
0.41500000000000026,0.0,0.0,-3.0,-2.0,-1.0,-1.0,-4.0,-3.0,0.317626953125,-0.27459716796875,-0.81695556640625,0.39532470703125,-0.22119140625,0.75341796875,0.634765625,-19.125,-3.0625,-2.125
0.42000000000000026,-2.0,-1.0,-3.0,-1.0,1.0,-3.0,-1.0,-1.0,0.317626953125,-0.27459716796875,-0.81695556640625,0.39532470703125,-0.22119140625,0.75341796875,0.634765625,-19.125,-3.0625,-2.125
0.42500000000000027,-2.0,-1.0,-3.0,-1.0,1.0,-3.0,-1.0,-1.0,0.31549072265625,-0.272216796875,-0.81787109375,0.3968505859375,-0.23681640625,0.77392578125,0.6005859375,-26.375,-2.1875,-0.4375
0.43000000000000027,2.0,1.0,1.0,-1.0,0.0,-2.0,1.0,0.0,0.3134765625,-0.26922607421875,-0.8187255859375,0.398681640625,-0.2470703125,0.77392578125,0.57568359375,-31.25,-0.75,-0.0625
0.4350000000000003,0.0,-1.0,1.0,5.0,5.0,-1.0,0.0,0.0,0.3134765625,-0.26922607421875,-0.8187255859375,0.398681640625,-0.2470703125,0.77392578125,0.57568359375,-31.25,-0.75,-0.0625
0.4400000000000003,1.0,-4.0,-2.0,-8.0,-14.0,-6.0,-3.0,-2.0,0.31195068359375,-0.2659912109375,-0.8193359375,0.4007568359375,-0.2412109375,0.78125,0.55712890625,-32.875,2.9375,0.0625
0.4450000000000003,1.0,-4.0,-2.0,-8.0,-14.0,-6.0,-3.0,-2.0,0.31195068359375,-0.2659912109375,-0.8193359375,0.4007568359375,-0.2412109375,0.78125,0.55712890625,-32.875,2.9375,0.0625
0.4500000000000003,-3.0,-1.0,1.0,-1.0,1.0,1.0,1.0,-1.0,0.31195068359375,-0.2659912109375,-0.8193359375,0.4007568359375,-0.2412109375,0.78125,0.55712890625,-32.875,2.9375,0.0625
0.4550000000000003,-2.0,2.0,0.0,2.0,5.0,0.0,-1.0,0.0,0.3115234375,-0.262939453125,-0.81951904296875,0.40277099609375,-0.24609375,0.755859375,0.53564453125,-29.0625,7.1875,0.125
0.4600000000000003,-2.0,2.0,0.0,2.0,5.0,0.0,-1.0,0.0,0.31231689453125,-0.2608642578125,-0.8192138671875,0.4041748046875,-0.26318359375,0.763671875,0.5419921875,-20.125,10.375,-1.125
0.4650000000000003,-2.0,-4.0,0.0,-2.0,-8.0,-2.0,0.0,-1.0,0.31427001953125,-0.25946044921875,-0.8184814453125,0.405029296875,-0.28955078125,0.7548828125,0.5546875,-11.375,13.1875,-2.0
0.4700000000000003,1.0,0.0,-1.0,-3.0,0.0,1.0,-2.0,0.0,0.31671142578125,-0.25811767578125,-0.8175048828125,0.40594482421875,-0.31201171875,0.75146484375,0.59375,-7.625,16.0,-1.0
0.4750000000000003,0.0,-1.0,1.0,-1.0,-3.0,1.0,1.0,-1.0,0.31671142578125,-0.25811767578125,-0.8175048828125,0.40594482421875,-0.31201171875,0.75146484375,0.59375,-7.625,16.0,-1.0
0.4800000000000003,-1.0,-2.0,-2.0,-3.0,0.0,-1.0,-1.0,-1.0,0.31671142578125,-0.25811767578125,-0.8175048828125,0.40594482421875,-0.31201171875,0.75146484375,0.59375,-7.625,16.0,-1.0
0.4850000000000003,-3.0,1.0,-1.0,0.0,-1.0,5.0,0.0,0.0,0.3193359375,-0.25634765625,-0.81646728515625,0.4071044921875,-0.33251953125,0.72607421875,0.6123046875,-7.625,17.75,0.6875
0.4900000000000003,0.0,0.0,-1.0,1.0,-2.0,-1.0,-1.0,0.0,0.321533203125,-0.25421142578125,-0.8154296875,0.40869140625,-0.34033203125,0.7041015625,0.642578125,-8.6875,18.0625,3.125
0.49500000000000033,-2.0,-2.0,-4.0,2.0,0.0,-3.0,-1.0,1.0,0.321533203125,-0.25421142578125,-0.8154296875,0.40869140625,-0.34033203125,0.7041015625,0.642578125,-8.6875,18.0625,3.125
0.5000000000000003,-1.0,-1.0,1.0,0.0,5.0,1.0,0.0,-1.0,0.3232421875,-0.25189208984375,-0.81451416015625,0.41064453125,-0.353515625,0.68017578125,0.6708984375,-8.9375,16.3125,5.875
0.5050000000000003,0.0,-2.0,-1.0,-3.0,-9.0,-1.0,-1.0,-1.0,0.3232421875,-0.25189208984375,-0.81451416015625,0.41064453125,-0.353515625,0.68017578125,0.6708984375,-8.9375,16.3125,5.875
0.5100000000000003,0.0,-2.0,-1.0,-3.0,-9.0,-1.0,-1.0,-1.0,0.3243408203125,-0.249755859375,-0.81353759765625,0.41302490234375,-0.35498046875,0.67431640625,0.6943359375,-8.875,14.4375,9.5625
0.5150000000000003,0.0,-2.0,-1.0,-3.0,-9.0,-1.0,-1.0,-1.0,0.3243408203125,-0.249755859375,-0.81353759765625,0.41302490234375,-0.35498046875,0.67431640625,0.6943359375,-8.875,14.4375,9.5625
0.5200000000000004,-1.0,-2.0,-2.0,4.0,9.0,0.0,0.0,1.0,0.32513427734375,-0.24774169921875,-0.8123779296875,0.41583251953125,-0.36669921875,0.66162109375,0.71533203125,-8.1875,13.9375,13.1875
0.5250000000000004,-1.0,-2.0,-2.0,4.0,9.0,0.0,0.0,1.0,0.32513427734375,-0.24774169921875,-0.8123779296875,0.41583251953125,-0.36669921875,0.66162109375,0.71533203125,-8.1875,13.9375,13.1875
0.5300000000000004,1.0,-3.0,2.0,2.0,-7.0,0.0,-2.0,-1.0,0.32513427734375,-0.24774169921875,-0.8123779296875,0.41583251953125,-0.36669921875,0.66162109375,0.71533203125,-8.1875,13.9375,13.1875
0.5350000000000004,1.0,-3.0,2.0,2.0,-7.0,0.0,-2.0,-1.0,0.32513427734375,-0.24774169921875,-0.8123779296875,0.41583251953125,-0.36669921875,0.66162109375,0.71533203125,-8.1875,13.9375,13.1875
0.5400000000000004,0.0,-1.0,-1.0,-2.0,-8.0,-1.0,0.0,-1.0,0.32574462890625,-0.24603271484375,-0.81121826171875,0.418701171875,-0.38134765625,0.6484375,0.7255859375,-6.375,11.75,15.4375
0.5450000000000004,-1.0,1.0,-2.0,1.0,6.0,0.0,-2.0,0.0,0.32574462890625,-0.24603271484375,-0.81121826171875,0.418701171875,-0.38134765625,0.6484375,0.7255859375,-6.375,11.75,15.4375
0.5500000000000004,-1.0,1.0,2.0,2.0,2.0,1.0,0.0,0.0,0.32623291015625,-0.24505615234375,-0.809814453125,0.42156982421875,-0.3818359375,0.634765625,0.71435546875,-2.6875,9.375,17.8125
0.5550000000000004,-3.0,-1.0,-7.0,-3.0,-15.0,-3.0,0.0,1.0,0.32623291015625,-0.24462890625,-0.80841064453125,0.42449951171875,-0.36865234375,0.6533203125,0.736328125,-1.3125,7.0625,18.875
0.5600000000000004,-3.0,-1.0,-7.0,-3.0,-15.0,-3.0,0.0,1.0,0.32623291015625,-0.24462890625,-0.80841064453125,0.42449951171875,-0.36865234375,0.6533203125,0.736328125,-1.3125,7.0625,18.875
0.5650000000000004,1.0,-1.0,-1.0,-3.0,-6.0,-2.0,0.0,-1.0,0.325927734375,-0.24395751953125,-0.80712890625,0.42755126953125,-0.36279296875,0.66162109375,0.7255859375,-4.6875,5.875,18.8125
0.5700000000000004,-1.0,-3.0,-1.0,2.0,2.0,-2.0,-2.0,-2.0,0.32489013671875,-0.24249267578125,-0.8062744140625,0.4307861328125,-0.36474609375,0.64990234375,0.720703125,-10.9375,3.8125,18.3125
0.5750000000000004,-2.0,-1.0,-3.0,-1.0,4.0,0.0,-4.0,-3.0,0.32489013671875,-0.24249267578125,-0.8062744140625,0.4307861328125,-0.36474609375,0.64990234375,0.720703125,-10.9375,3.8125,18.3125
0.5800000000000004,-1.0,-1.0,2.0,-4.0,-11.0,3.0,1.0,1.0,0.3232421875,-0.24017333984375,-0.80584716796875,0.43414306640625,-0.3681640625,0.63720703125,0.7314453125,-16.3125,2.375,17.9375
0.5850000000000004,-1.0,1.0,-1.0,-2.0,8.0,-2.0,-3.0,-3.0,0.32159423828125,-0.237548828125,-0.80548095703125,0.43743896484375,-0.3740234375,0.619140625,0.72802734375,-17.375,1.8125,17.5
0.5900000000000004,-1.0,1.0,-1.0,-2.0,8.0,-2.0,-3.0,-3.0,0.32159423828125,-0.237548828125,-0.80548095703125,0.43743896484375,-0.3740234375,0.619140625,0.72802734375,-17.375,1.8125,17.5
0.5950000000000004,-2.0,1.0,-3.0,0.0,-7.0,-3.0,-2.0,-3.0,0.32159423828125,-0.237548828125,-0.80548095703125,0.43743896484375,-0.3740234375,0.619140625,0.72802734375,-17.375,1.8125,17.5
0.6000000000000004,-1.0,-2.0,0.0,5.0,6.0,0.0,-3.0,-1.0,0.32000732421875,-0.23516845703125,-0.80511474609375,0.4405517578125,-0.3779296875,0.60693359375,0.71337890625,-16.375,0.8125,17.1875
0.6050000000000004,-1.0,1.0,-2.0,-4.0,-9.0,-6.0,-1.0,0.0,0.3182373046875,-0.23284912109375,-0.804931640625,0.44342041015625,-0.37060546875,0.59912109375,0.70458984375,-16.5,-0.875,16.375
0.6100000000000004,-1.0,1.0,-2.0,-4.0,-9.0,-6.0,-1.0,0.0,0.31646728515625,-0.23101806640625,-0.80474853515625,0.44598388671875,-0.36376953125,0.59423828125,0.69384765625,-14.5,-2.6875,15.3125
0.6150000000000004,-1.0,-3.0,-3.0,-4.0,-5.0,-4.0,-4.0,-2.0,0.31500244140625,-0.22979736328125,-0.80450439453125,0.44805908203125,-0.3642578125,0.59912109375,0.6796875,-11.0625,-3.875,13.8125
0.6200000000000004,-1.0,-3.0,-3.0,-4.0,-5.0,-4.0,-4.0,-2.0,0.31500244140625,-0.22979736328125,-0.80450439453125,0.44805908203125,-0.3642578125,0.59912109375,0.6796875,-11.0625,-3.875,13.8125
0.6250000000000004,1.0,0.0,1.0,0.0,-1.0,2.0,2.0,0.0,0.313720703125,-0.22900390625,-0.8043212890625,0.44970703125,-0.36572265625,0.6083984375,0.67236328125,-8.5625,-5.0625,12.3125
0.6300000000000004,-1.0,-4.0,-2.0,-4.0,-13.0,-4.0,-2.0,-1.0,0.313720703125,-0.22900390625,-0.8043212890625,0.44970703125,-0.36572265625,0.6083984375,0.67236328125,-8.5625,-5.0625,12.3125
0.6350000000000005,0.0,-1.0,-1.0,-6.0,-3.0,1.0,-2.0,-1.0,0.3125,-0.228271484375,-0.80413818359375,0.451171875,-0.3544921875,0.6044921875,0.671875,-8.1875,-5.0625,10.9375
0.6400000000000005,-1.0,-2.0,0.0,1.0,8.0,0.0,-2.0,-1.0,0.31158447265625,-0.2276611328125,-0.80401611328125,0.45233154296875,-0.34716796875,0.60400390625,0.671875,-6.3125,-4.1875,9.0625
0.6450000000000005,-1.0,-2.0,0.0,1.0,8.0,0.0,-2.0,-1.0,0.31121826171875,-0.22735595703125,-0.80377197265625,0.45318603515625,-0.3427734375,0.619140625,0.65625,-4.3125,-2.875,7.25
0.6500000000000005,-1.0,-2.0,0.0,1.0,8.0,0.0,-2.0,-1.0,0.31121826171875,-0.22735595703125,-0.80377197265625,0.45318603515625,-0.3427734375,0.619140625,0.65625,-4.3125,-2.875,7.25
0.6550000000000005,1.0,-1.0,-1.0,4.0,-1.0,-4.0,-2.0,1.0,0.31121826171875,-0.22735595703125,-0.80377197265625,0.45318603515625,-0.3427734375,0.619140625,0.65625,-4.3125,-2.875,7.25
0.6600000000000005,1.0,-1.0,-1.0,4.0,-1.0,-4.0,-2.0,1.0,0.31121826171875,-0.22735595703125,-0.80377197265625,0.45318603515625,-0.3427734375,0.619140625,0.65625,-4.3125,-2.875,7.25
0.6650000000000005,0.0,-2.0,-1.0,1.0,-1.0,0.0,0.0,-4.0,0.3114013671875,-0.22686767578125,-0.8035888671875,0.4537353515625,-0.34326171875,0.62060546875,0.63671875,-4.4375,-0.4375,4.5625
0.6700000000000005,-2.0,-2.0,-4.0,0.0,5.0,-1.0,1.0,1.0,0.31298828125,-0.2244873046875,-0.802978515625,0.45489501953125,-0.34033203125,0.60986328125,0.63427734375,-4.6875,6.0625,2.4375
0.6750000000000005,-2.0,-2.0,-4.0,0.0,5.0,-1.0,1.0,1.0,0.31298828125,-0.2244873046875,-0.802978515625,0.45489501953125,-0.34033203125,0.60986328125,0.63427734375,-4.6875,6.0625,2.4375
0.6800000000000005,-2.0,-2.0,-2.0,5.0,3.0,0.0,-2.0,-2.0,0.31298828125,-0.2244873046875,-0.802978515625,0.45489501953125,-0.34033203125,0.60986328125,0.63427734375,-4.6875,6.0625,2.4375
0.6850000000000005,-1.0,0.0,-1.0,0.0,4.0,-2.0,-1.0,-1.0,0.31463623046875,-0.22430419921875,-0.802490234375,0.4547119140625,-0.34521484375,0.59423828125,0.64013671875,3.9375,5.0625,1.0625
0.6900000000000005,-1.0,0.0,-1.0,0.0,4.0,-2.0,-1.0,-1.0,0.31463623046875,-0.22430419921875,-0.802490234375,0.4547119140625,-0.34521484375,0.59423828125,0.64013671875,3.9375,5.0625,1.0625
0.6950000000000005,-1.0,0.0,-1.0,0.0,4.0,-2.0,-1.0,-1.0,0.31683349609375,-0.225830078125,-0.80157470703125,0.4539794921875,-0.3193359375,0.63427734375,0.64599609375,13.5625,4.875,0.0625
0.7000000000000005,-2.0,0.0,1.0,-5.0,-9.0,-4.0,-1.0,-1.0,0.31683349609375,-0.225830078125,-0.80157470703125,0.4539794921875,-0.3193359375,0.63427734375,0.64599609375,13.5625,4.875,0.0625
0.7050000000000005,1.0,-1.0,0.0,-4.0,-11.0,-1.0,-1.0,-4.0,0.3192138671875,-0.22711181640625,-0.80059814453125,0.4534912109375,-0.31689453125,0.68505859375,0.65478515625,10.9375,7.3125,-0.75
0.7100000000000005,-2.0,-1.0,-3.0,-7.0,-9.0,-2.0,-1.0,-2.0,0.3192138671875,-0.22711181640625,-0.80059814453125,0.4534912109375,-0.31689453125,0.68505859375,0.65478515625,10.9375,7.3125,-0.75
0.7150000000000005,-2.0,-4.0,-1.0,7.0,32.0,2.0,1.0,-3.0,0.3209228515625,-0.226806640625,-0.80010986328125,0.45318603515625,-0.3330078125,0.666015625,0.671875,2.8125,7.25,-2.0
0.7200000000000005,-1.0,1.0,1.0,9.0,14.0,7.0,0.0,-1.0,0.3209228515625,-0.226806640625,-0.80010986328125,0.45318603515625,-0.3330078125,0.666015625,0.671875,2.8125,7.25,-2.0
0.7250000000000005,-2.0,0.0,0.0,7.0,-10.0,-3.0,-2.0,-1.0,0.32183837890625,-0.22637939453125,-0.80023193359375,0.45257568359375,-0.31298828125,0.6318359375,0.7021484375,3.125,4.75,-4.5625
0.7300000000000005,1.0,-5.0,-1.0,1.0,5.0,-2.0,1.0,-1.0,0.32281494140625,-0.22650146484375,-0.80023193359375,0.4517822265625,-0.2978515625,0.6357421875,0.72705078125,7.0625,4.5625,-5.0
0.7350000000000005,1.0,-2.0,-5.0,-3.0,7.0,-4.0,-3.0,-1.0,0.32403564453125,-0.22686767578125,-0.800048828125,0.45098876953125,-0.30615234375,0.64306640625,0.7255859375,8.9375,5.125,-4.0625
0.7400000000000005,1.0,0.0,1.0,-2.0,-6.0,0.0,-2.0,0.0,0.32403564453125,-0.22686767578125,-0.800048828125,0.45098876953125,-0.30615234375,0.64306640625,0.7255859375,8.9375,5.125,-4.0625
0.7450000000000006,-2.0,-2.0,-2.0,-2.0,-8.0,-3.0,-2.0,-2.0,0.324951171875,-0.22760009765625,-0.79998779296875,0.4501953125,-0.3017578125,0.64404296875,0.72998046875,10.0,3.1875,-3.75
0.7500000000000006,0.0,-3.0,0.0,5.0,2.0,-2.0,-2.0,1.0,0.324951171875,-0.22760009765625,-0.79998779296875,0.4501953125,-0.3017578125,0.64404296875,0.72998046875,10.0,3.1875,-3.75
0.7550000000000006,-2.0,-1.0,-1.0,0.0,-2.0,1.0,0.0,0.0,0.324951171875,-0.22760009765625,-0.79998779296875,0.4501953125,-0.3017578125,0.64404296875,0.72998046875,10.0,3.1875,-3.75
0.7600000000000006,-2.0,-1.0,-1.0,0.0,-2.0,1.0,0.0,0.0,0.32537841796875,-0.2286376953125,-0.80010986328125,0.4490966796875,-0.30078125,0.6513671875,0.73974609375,10.5625,-0.5625,-4.4375
0.7650000000000006,0.0,-4.0,-2.0,-4.0,-1.0,-3.0,-2.0,-2.0,0.32537841796875,-0.2286376953125,-0.80010986328125,0.4490966796875,-0.30078125,0.6513671875,0.73974609375,10.5625,-0.5625,-4.4375
0.7700000000000006,-1.0,-2.0,-1.0,-6.0,-6.0,-1.0,-2.0,2.0,0.3253173828125,-0.2296142578125,-0.80035400390625,0.44818115234375,-0.296875,0.6533203125,0.7373046875,8.5625,-2.3125,-3.6875
0.7750000000000006,0.0,0.0,-1.0,2.0,10.0,0.0,-2.0,-2.0,0.32452392578125,-0.230224609375,-0.80072021484375,0.44775390625,-0.275390625,0.66455078125,0.748046875,3.6875,-3.4375,-2.6875
0.7800000000000006,-2.0,-2.0,-2.0,5.0,-1.0,-2.0,-1.0,-2.0,0.32452392578125,-0.230224609375,-0.80072021484375,0.44775390625,-0.275390625,0.66455078125,0.748046875,3.6875,-3.4375,-2.6875
0.7850000000000006,-2.0,-2.0,-2.0,5.0,-1.0,-2.0,-1.0,-2.0,0.32452392578125,-0.230224609375,-0.80072021484375,0.44775390625,-0.275390625,0.66455078125,0.748046875,3.6875,-3.4375,-2.6875
0.7900000000000006,2.0,0.0,-3.0,-4.0,-4.0,-2.0,-1.0,-1.0,0.3232421875,-0.2303466796875,-0.80126953125,0.44769287109375,-0.2724609375,0.64599609375,0.7451171875,0.0,-4.0,-1.3125
0.7950000000000006,-1.0,0.0,-2.0,0.0,6.0,-2.0,-2.0,-1.0,0.32159423828125,-0.23016357421875,-0.80181884765625,0.447998046875,-0.267578125,0.640625,0.7294921875,-3.5,-4.8125,0.0
0.8000000000000006,0.0,-2.0,-4.0,-5.0,-6.0,-1.0,-2.0,1.0,0.31951904296875,-0.229736328125,-0.80255126953125,0.44842529296875,-0.26416015625,0.64208984375,0.720703125,-7.25,-6.4375,0.25
0.8050000000000006,0.0,-2.0,-4.0,-5.0,-6.0,-1.0,-2.0,1.0,0.31951904296875,-0.229736328125,-0.80255126953125,0.44842529296875,-0.26416015625,0.64208984375,0.720703125,-7.25,-6.4375,0.25
0.8100000000000006,-3.0,-2.0,-4.0,-2.0,-6.0,0.0,-2.0,-1.0,0.31695556640625,-0.2291259765625,-0.8033447265625,0.4490966796875,-0.25146484375,0.6318359375,0.71533203125,-9.5625,-7.875,1.625
0.8150000000000006,-1.0,0.0,1.0,-4.0,-8.0,-1.0,-1.0,-2.0,0.31695556640625,-0.2291259765625,-0.8033447265625,0.4490966796875,-0.25146484375,0.6318359375,0.71533203125,-9.5625,-7.875,1.625
0.8200000000000006,0.0,0.0,-1.0,5.0,2.0,1.0,-1.0,0.0,0.314208984375,-0.22845458984375,-0.8040771484375,0.45001220703125,-0.25,0.63427734375,0.705078125,-11.75,-8.5625,2.75
0.8250000000000006,-1.0,0.0,-1.0,3.0,7.0,-1.0,-2.0,-2.0,0.314208984375,-0.22845458984375,-0.8040771484375,0.45001220703125,-0.25,0.63427734375,0.705078125,-11.75,-8.5625,2.75
0.8300000000000006,-1.0,-1.0,1.0,9.0,-8.0,-3.0,-1.0,-3.0,0.314208984375,-0.22845458984375,-0.8040771484375,0.45001220703125,-0.25,0.63427734375,0.705078125,-11.75,-8.5625,2.75
0.8350000000000006,-3.0,-1.0,-3.0,-8.0,-12.0,-4.0,-4.0,0.0,0.3111572265625,-0.22784423828125,-0.80487060546875,0.45098876953125,-0.24560546875,0.62744140625,0.70458984375,-12.5625,-9.8125,3.25
0.8400000000000006,-2.0,-3.0,1.0,-1.0,6.0,1.0,1.0,-4.0,0.30804443359375,-0.22747802734375,-0.80560302734375,0.4520263671875,-0.23095703125,0.63916015625,0.689453125,-12.8125,-10.9375,3.6875
0.8450000000000006,-3.0,-1.0,0.0,-4.0,-9.0,-3.0,-1.0,-3.0,0.3052978515625,-0.22735595703125,-0.8062744140625,0.4527587890625,-0.24462890625,0.66015625,0.6630859375,-12.9375,-11.375,2.75
0.8500000000000006,-3.0,-1.0,0.0,-4.0,-9.0,-3.0,-1.0,-3.0,0.30279541015625,-0.2269287109375,-0.80712890625,0.4532470703125,-0.26416015625,0.66552734375,0.666015625,-14.0625,-11.4375,1.25
0.8550000000000006,-3.0,-1.0,0.0,-4.0,-9.0,-3.0,-1.0,-3.0,0.30279541015625,-0.2269287109375,-0.80712890625,0.4532470703125,-0.26416015625,0.66552734375,0.666015625,-14.0625,-11.4375,1.25
0.8600000000000007,-1.0,-1.0,-1.0,0.0,3.0,0.0,0.0,-2.0,0.30059814453125,-0.22637939453125,-0.8079833984375,0.45343017578125,-0.26904296875,0.67138671875,0.66943359375,-13.25,-10.375,-0.625
0.8650000000000007,-2.0,-1.0,-4.0,-4.0,2.0,-3.0,0.0,-1.0,0.30059814453125,-0.22637939453125,-0.8079833984375,0.45343017578125,-0.26904296875,0.67138671875,0.66943359375,-13.25,-10.375,-0.625
0.8700000000000007,-1.0,0.0,2.0,-2.0,-11.0,3.0,0.0,0.0,0.29913330078125,-0.22607421875,-0.80877685546875,0.453125,-0.2802734375,0.65234375,0.6796875,-8.4375,-8.4375,-2.4375
0.8750000000000007,-3.0,-1.0,-2.0,-9.0,-8.0,-3.0,-1.0,0.0,0.29913330078125,-0.22607421875,-0.80877685546875,0.453125,-0.2802734375,0.65234375,0.6796875,-8.4375,-8.4375,-2.4375
0.8800000000000007,-1.0,-4.0,-1.0,1.0,2.0,-1.0,0.0,-2.0,0.29833984375,-0.22637939453125,-0.809326171875,0.45245361328125,-0.283203125,0.6640625,0.68994140625,-2.75,-7.25,-3.625
0.8850000000000007,-1.0,0.0,0.0,1.0,-6.0,-1.0,-2.0,-2.0,0.29803466796875,-0.22674560546875,-0.80987548828125,0.45147705078125,-0.29150390625,0.66015625,0.68212890625,-1.25,-6.1875,-4.75
0.8900000000000007,2.0,-1.0,-5.0,-7.0,3.0,0.0,-3.0,-1.0,0.29803466796875,-0.22674560546875,-0.80987548828125,0.45147705078125,-0.29150390625,0.66015625,0.68212890625,-1.25,-6.1875,-4.75
0.8950000000000007,2.0,-1.0,-5.0,-7.0,3.0,0.0,-3.0,-1.0,0.29766845703125,-0.22674560546875,-0.810546875,0.4505615234375,-0.294921875,0.65185546875,0.68603515625,-2.8125,-5.4375,-5.0
0.9000000000000007,-2.0,-4.0,-2.0,-5.0,-10.0,-2.0,0.0,0.0,0.29766845703125,-0.22674560546875,-0.810546875,0.4505615234375,-0.294921875,0.65185546875,0.68603515625,-2.8125,-5.4375,-5.0
0.9050000000000007,-3.0,0.0,1.0,1.0,0.0,-2.0,-2.0,-3.0,0.29766845703125,-0.22674560546875,-0.810546875,0.4505615234375,-0.294921875,0.65185546875,0.68603515625,-2.8125,-5.4375,-5.0
0.9100000000000007,0.0,0.0,1.0,-2.0,-7.0,1.0,1.0,0.0,0.29736328125,-0.2265625,-0.8111572265625,0.44976806640625,-0.29833984375,0.64013671875,0.69287109375,-2.5625,-4.6875,-4.75
0.9150000000000007,-2.0,-2.0,-1.0,-2.0,-6.0,-2.0,0.0,1.0,0.29736328125,-0.22674560546875,-0.8116455078125,0.44879150390625,-0.30908203125,0.63671875,0.701171875,0.875,-4.375,-4.125
0.9200000000000007,-2.0,-2.0,-1.0,-2.0,-6.0,-2.0,0.0,1.0,0.29736328125,-0.22674560546875,-0.8116455078125,0.44879150390625,-0.30908203125,0.63671875,0.701171875,0.875,-4.375,-4.125
0.9250000000000007,1.0,-3.0,-2.0,-3.0,-1.0,-2.0,1.0,0.0,0.29736328125,-0.22674560546875,-0.8116455078125,0.44879150390625,-0.30908203125,0.63671875,0.701171875,0.875,-4.375,-4.125
0.9300000000000007,1.0,-3.0,-2.0,5.0,7.0,1.0,-1.0,0.0,0.2974853515625,-0.22723388671875,-0.8118896484375,0.447998046875,-0.30224609375,0.6318359375,0.69921875,3.125,-3.8125,-2.5
0.9350000000000007,-1.0,0.0,1.0,3.0,-6.0,-2.0,0.0,0.0,0.29754638671875,-0.2279052734375,-0.81207275390625,0.44732666015625,-0.30029296875,0.626953125,0.6982421875,3.75,-4.0625,-1.5
0.9400000000000007,-2.0,-1.0,0.0,6.0,11.0,-2.0,0.0,-2.0,0.29754638671875,-0.2288818359375,-0.8121337890625,0.44671630859375,-0.29638671875,0.63818359375,0.70654296875,4.75,-4.25,-0.5
0.9450000000000007,-2.0,1.0,-2.0,-5.0,-20.0,-2.0,-2.0,0.0,0.29754638671875,-0.2288818359375,-0.8121337890625,0.44671630859375,-0.29638671875,0.63818359375,0.70654296875,4.75,-4.25,-0.5
0.9500000000000007,-2.0,1.0,-2.0,-5.0,-20.0,-2.0,-2.0,0.0,0.29754638671875,-0.2288818359375,-0.8121337890625,0.44671630859375,-0.29638671875,0.63818359375,0.70654296875,4.75,-4.25,-0.5
0.9550000000000007,0.0,-2.0,-2.0,-4.0,-2.0,-2.0,-1.0,0.0,0.297607421875,-0.2298583984375,-0.81207275390625,0.44622802734375,-0.30078125,0.64990234375,0.6982421875,4.1875,-4.5,0.0625
0.9600000000000007,0.0,-1.0,-2.0,2.0,5.0,-1.0,-3.0,-1.0,0.297607421875,-0.2298583984375,-0.81207275390625,0.44622802734375,-0.30078125,0.64990234375,0.6982421875,4.1875,-4.5,0.0625
0.9650000000000007,-2.0,1.0,-1.0,-3.0,-6.0,0.0,-2.0,-1.0,0.29754638671875,-0.23089599609375,-0.812255859375,0.44549560546875,-0.3193359375,0.63037109375,0.6923828125,1.75,-4.5625,0.9375
0.9700000000000008,-2.0,1.0,-1.0,-3.0,-6.0,0.0,-2.0,-1.0,0.29754638671875,-0.23089599609375,-0.812255859375,0.44549560546875,-0.3193359375,0.63037109375,0.6923828125,1.75,-4.5625,0.9375
0.9750000000000008,-2.0,1.0,-1.0,-3.0,-6.0,0.0,-2.0,-1.0,0.29754638671875,-0.23089599609375,-0.812255859375,0.44549560546875,-0.3193359375,0.63037109375,0.6923828125,1.75,-4.5625,0.9375
0.9800000000000008,-1.0,-2.0,-4.0,-6.0,4.0,0.0,-1.0,-1.0,0.29791259765625,-0.2320556640625,-0.81207275390625,0.44488525390625,-0.32421875,0.6240234375,0.68798828125,7.3125,-4.5625,1.5625
0.9850000000000008,-1.0,-2.0,-4.0,-6.0,4.0,0.0,-1.0,-1.0,0.2987060546875,-0.233642578125,-0.81170654296875,0.44415283203125,-0.33837890625,0.6279296875,0.69287109375,11.1875,-4.25,2.25
0.9900000000000008,-1.0,-2.0,-4.0,-6.0,4.0,0.0,-1.0,-1.0,0.2987060546875,-0.233642578125,-0.81170654296875,0.44415283203125,-0.33837890625,0.6279296875,0.69287109375,11.1875,-4.25,2.25
0.9950000000000008,0.0,-2.0,0.0,-1.0,-3.0,-1.0,-1.0,1.0,0.299560546875,-0.23553466796875,-0.81121826171875,0.44354248046875,-0.3291015625,0.63232421875,0.6884765625,12.5,-3.8125,3.0
1.0000000000000007,-1.0,1.0,1.0,-2.0,-10.0,1.0,-2.0,0.0,0.30029296875,-0.2373046875,-0.81060791015625,0.44317626953125,-0.3134765625,0.65478515625,0.6923828125,10.375,-2.8125,3.5
1.0050000000000006,-2.0,-1.0,-2.0,-4.0,0.0,-2.0,-2.0,-2.0,0.30084228515625,-0.2384033203125,-0.8101806640625,0.44305419921875,-0.31640625,0.66943359375,0.68310546875,5.6875,-2.125,3.125
1.0100000000000005,-3.0,-3.0,3.0,0.0,-1.0,-1.0,1.0,-1.0,0.30084228515625,-0.2384033203125,-0.8101806640625,0.44305419921875,-0.31640625,0.66943359375,0.68310546875,5.6875,-2.125,3.125
1.0150000000000003,-1.0,-4.0,-3.0,-9.0,-1.0,-2.0,0.0,-3.0,0.3011474609375,-0.2386474609375,-0.80999755859375,0.4429931640625,-0.32080078125,0.6630859375,0.68359375,0.6875,-1.375,2.0625
1.0200000000000002,-1.0,-4.0,-3.0,-9.0,-1.0,-2.0,0.0,-3.0,0.3011474609375,-0.2386474609375,-0.80999755859375,0.4429931640625,-0.32080078125,0.6630859375,0.68359375,0.6875,-1.375,2.0625
1.0250000000000001,-2.0,-1.0,1.0,-2.0,2.0,-1.0,0.0,1.0,0.3011474609375,-0.2386474609375,-0.80999755859375,0.4429931640625,-0.32080078125,0.6630859375,0.68359375,0.6875,-1.375,2.0625
1.03,-3.0,0.0,-3.0,-2.0,-14.0,-1.0,-1.0,-3.0,0.30126953125,-0.2384033203125,-0.80987548828125,0.44329833984375,-0.29931640625,0.658203125,0.69287109375,-1.9375,0.25,1.9375
1.035,1.0,2.0,2.0,-3.0,-3.0,-2.0,-1.0,0.0,0.3013916015625,-0.2381591796875,-0.809814453125,0.4434814453125,-0.28857421875,0.64599609375,0.69580078125,-1.25,0.9375,1.125
1.0399999999999998,0.0,-1.0,0.0,4.0,7.0,0.0,1.0,3.0,0.3013916015625,-0.2381591796875,-0.809814453125,0.4434814453125,-0.28857421875,0.64599609375,0.69580078125,-1.25,0.9375,1.125
1.0449999999999997,0.0,-1.0,0.0,4.0,7.0,0.0,1.0,3.0,0.3017578125,-0.23822021484375,-0.80963134765625,0.4434814453125,-0.2890625,0.63818359375,0.70068359375,2.1875,1.0,0.9375
1.0499999999999996,-1.0,-1.0,-1.0,0.0,-5.0,-3.0,-1.0,-2.0,0.30255126953125,-0.23883056640625,-0.80926513671875,0.443359375,-0.2978515625,0.66064453125,0.6875,4.375,1.25,0.9375
1.0549999999999995,0.0,0.0,-1.0,4.0,-3.0,-1.0,-1.0,0.0,0.3031005859375,-0.23907470703125,-0.80908203125,0.443115234375,-0.310546875,0.66845703125,0.69921875,2.4375,0.125,0.3125
1.0599999999999994,0.0,0.0,-1.0,4.0,-3.0,-1.0,-1.0,0.0,0.3031005859375,-0.23907470703125,-0.80908203125,0.443115234375,-0.310546875,0.66845703125,0.69921875,2.4375,0.125,0.3125
1.0649999999999993,-2.0,1.0,1.0,-6.0,3.0,-1.0,1.0,-2.0,0.3031005859375,-0.23907470703125,-0.80908203125,0.443115234375,-0.310546875,0.66845703125,0.69921875,2.4375,0.125,0.3125
1.0699999999999992,-2.0,1.0,1.0,-6.0,3.0,-1.0,1.0,-2.0,0.3031005859375,-0.23907470703125,-0.80908203125,0.443115234375,-0.310546875,0.66845703125,0.69921875,2.4375,0.125,0.3125
1.074999999999999,2.0,0.0,1.0,-5.0,-6.0,-2.0,-3.0,0.0,0.3033447265625,-0.23931884765625,-0.80914306640625,0.4427490234375,-0.306640625,0.65576171875,0.705078125,2.375,-1.125,-0.5625
1.079999999999999,-2.0,0.0,-2.0,1.0,4.0,-1.0,-1.0,-1.0,0.303466796875,-0.23974609375,-0.80926513671875,0.4422607421875,-0.29736328125,0.64404296875,0.703125,3.8125,-2.25,-1.1875
1.0849999999999989,0.0,-1.0,-1.0,-2.0,-8.0,-2.0,-3.0,1.0,0.303466796875,-0.23974609375,-0.80926513671875,0.4422607421875,-0.29736328125,0.64404296875,0.703125,3.8125,-2.25,-1.1875
1.0899999999999987,-2.0,0.0,2.0,-2.0,-7.0,0.0,-2.0,-2.0,0.3033447265625,-0.240234375,-0.80938720703125,0.4417724609375,-0.28466796875,0.6259765625,0.7119140625,4.5625,-2.9375,-0.6875
1.0949999999999986,-3.0,0.0,-1.0,-2.0,6.0,-4.0,-2.0,-1.0,0.3033447265625,-0.240234375,-0.80938720703125,0.4417724609375,-0.28466796875,0.6259765625,0.7119140625,4.5625,-2.9375,-0.6875
1.0999999999999985,0.0,1.0,0.0,3.0,0.0,1.0,-1.0,-1.0,0.3031005859375,-0.24090576171875,-0.8094482421875,0.4415283203125,-0.27197265625,0.61572265625,0.72119140625,5.875,-2.625,0.8125
1.1049999999999984,-3.0,-4.0,-3.0,-6.0,-11.0,-3.0,-2.0,-1.0,0.302734375,-0.2418212890625,-0.809326171875,0.44146728515625,-0.263671875,0.638671875,0.71923828125,5.375,-2.75,1.6875
1.1099999999999983,-3.0,-4.0,-3.0,-6.0,-11.0,-3.0,-2.0,-1.0,0.302734375,-0.2418212890625,-0.809326171875,0.44146728515625,-0.263671875,0.638671875,0.71923828125,5.375,-2.75,1.6875
1.1149999999999982,-1.0,0.0,-1.0,-7.0,-4.0,-1.0,-2.0,-1.0,0.302001953125,-0.24237060546875,-0.80938720703125,0.44158935546875,-0.255859375,0.6533203125,0.716796875,1.4375,-3.4375,1.75
1.119999999999998,-3.0,-2.0,-5.0,-6.0,-4.0,-1.0,-2.0,-1.0,0.3006591796875,-0.2420654296875,-0.8096923828125,0.4420166015625,-0.25048828125,0.646484375,0.708984375,-5.0,-4.375,1.625
1.124999999999998,-2.0,-4.0,-6.0,-8.0,-7.0,-3.0,-3.0,-1.0,0.29888916015625,-0.2412109375,-0.81024169921875,0.44268798828125,-0.240234375,0.65380859375,0.71533203125,-9.9375,-4.3125,1.5
1.129999999999998,-1.0,0.0,4.0,-1.0,-2.0,0.0,-1.0,-1.0,0.29888916015625,-0.2412109375,-0.81024169921875,0.44268798828125,-0.240234375,0.65380859375,0.71533203125,-9.9375,-4.3125,1.5
1.1349999999999978,0.0,1.0,-4.0,-1.0,1.0,-1.0,0.0,-2.0,0.296875,-0.2398681640625,-0.81103515625,0.44342041015625,-0.240234375,0.642578125,0.71337890625,-12.875,-4.5625,0.4375
1.1399999999999977,0.0,1.0,-4.0,-1.0,1.0,-1.0,0.0,-2.0,0.296875,-0.2398681640625,-0.81103515625,0.44342041015625,-0.240234375,0.642578125,0.71337890625,-12.875,-4.5625,0.4375
1.1449999999999976,-1.0,-2.0,0.0,-6.0,7.0,-1.0,-1.0,-2.0,0.29486083984375,-0.238525390625,-0.8118896484375,0.44384765625,-0.2353515625,0.64013671875,0.724609375,-12.625,-5.1875,-0.875
1.1499999999999975,-1.0,-1.0,-2.0,-1.0,2.0,-4.0,0.0,1.0,0.2928466796875,-0.23724365234375,-0.81280517578125,0.44427490234375,-0.22705078125,0.64111328125,0.724609375,-12.3125,-4.75,-1.625
1.1549999999999974,0.0,-1.0,-4.0,-4.0,-11.0,-3.0,-1.0,-1.0,0.2928466796875,-0.23724365234375,-0.81280517578125,0.44427490234375,-0.22705078125,0.64111328125,0.724609375,-12.3125,-4.75,-1.625
1.1599999999999973,0.0,-4.0,0.0,3.0,3.0,-1.0,-1.0,-1.0,0.29119873046875,-0.23614501953125,-0.8135986328125,0.44439697265625,-0.2265625,0.6337890625,0.70947265625,-10.5625,-4.5,-2.4375
1.1649999999999971,-1.0,-2.0,-1.0,-7.0,0.0,-2.0,-2.0,0.0,0.29119873046875,-0.23614501953125,-0.8135986328125,0.44439697265625,-0.2265625,0.6337890625,0.70947265625,-10.5625,-4.5,-2.4375
1.169999999999997,-3.0,1.0,-1.0,-1.0,0.0,-5.0,1.0,1.0,0.28955078125,-0.23516845703125,-0.814453125,0.4444580078125,-0.232421875,0.60888671875,0.7158203125,-8.8125,-5.125,-2.375
1.174999999999997,-1.0,-1.0,2.0,2.0,1.0,-1.0,1.0,-2.0,0.28802490234375,-0.23455810546875,-0.815185546875,0.4444580078125,-0.22509765625,0.595703125,0.716796875,-5.6875,-5.1875,-1.3125
1.1799999999999968,-4.0,0.0,-1.0,-4.0,-3.0,1.0,-3.0,-2.0,0.28802490234375,-0.23455810546875,-0.815185546875,0.4444580078125,-0.22509765625,0.595703125,0.716796875,-5.6875,-5.1875,-1.3125
1.1849999999999967,0.0,1.0,-2.0,2.0,-3.0,0.0,4.0,-2.0,0.28802490234375,-0.23455810546875,-0.815185546875,0.4444580078125,-0.22509765625,0.595703125,0.716796875,-5.6875,-5.1875,-1.3125
1.1899999999999966,0.0,1.0,-2.0,2.0,-3.0,0.0,4.0,-2.0,0.2869873046875,-0.23431396484375,-0.81561279296875,0.4444580078125,-0.25146484375,0.59814453125,0.70703125,-3.3125,-4.6875,0.1875
1.1949999999999965,-1.0,-3.0,-1.0,-6.0,-4.0,-4.0,-2.0,-2.0,0.2869873046875,-0.23431396484375,-0.81561279296875,0.4444580078125,-0.25146484375,0.59814453125,0.70703125,-3.3125,-4.6875,0.1875
1.1999999999999964,-1.0,-3.0,-1.0,-6.0,-4.0,-4.0,-2.0,-2.0,0.28607177734375,-0.23388671875,-0.81597900390625,0.44464111328125,-0.27001953125,0.61083984375,0.71240234375,-4.375,-4.375,1.1875
1.2049999999999963,0.0,1.0,-1.0,1.0,8.0,3.0,-3.0,-1.0,0.28607177734375,-0.23388671875,-0.81597900390625,0.44464111328125,-0.27001953125,0.61083984375,0.71240234375,-4.375,-4.375,1.1875
1.2099999999999962,0.0,1.0,-1.0,1.0,8.0,3.0,-3.0,-1.0,0.285400390625,-0.23321533203125,-0.81622314453125,0.4449462890625,-0.2841796875,0.6611328125,0.7099609375,-7.8125,-3.0,1.25
1.214999999999996,0.0,-4.0,-2.0,12.0,33.0,5.0,1.0,-1.0,0.285400390625,-0.23321533203125,-0.81622314453125,0.4449462890625,-0.2841796875,0.6611328125,0.7099609375,-7.8125,-3.0,1.25
1.219999999999996,0.0,-4.0,-2.0,12.0,33.0,5.0,1.0,-1.0,0.285400390625,-0.23321533203125,-0.81622314453125,0.4449462890625,-0.2841796875,0.6611328125,0.7099609375,-7.8125,-3.0,1.25
1.2249999999999959,1.0,-2.0,-2.0,2.0,-2.0,1.0,-2.0,-2.0,0.28497314453125,-0.2315673828125,-0.816650390625,0.44525146484375,-0.30908203125,0.68359375,0.70849609375,-13.625,-1.3125,-0.75
1.2299999999999958,-1.0,0.0,-2.0,-6.0,0.0,-3.0,-1.0,0.0,0.28424072265625,-0.22906494140625,-0.81744384765625,0.44561767578125,-0.28515625,0.66796875,0.70703125,-18.375,0.5,-2.9375
1.2349999999999957,-1.0,-1.0,-1.0,3.0,3.0,1.0,-2.0,0.0,0.28350830078125,-0.226806640625,-0.81829833984375,0.44561767578125,-0.265625,0.6240234375,0.708984375,-15.1875,0.1875,-4.8125
1.2399999999999956,-1.0,-1.0,-1.0,3.0,3.0,1.0,-2.0,0.0,0.28350830078125,-0.226806640625,-0.81829833984375,0.44561767578125,-0.265625,0.6240234375,0.708984375,-15.1875,0.1875,-4.8125
1.2449999999999954,-2.0,-3.0,0.0,-4.0,-6.0,-3.0,0.0,-1.0,0.2833251953125,-0.2257080078125,-0.8189697265625,0.44512939453125,-0.27392578125,0.5947265625,0.70458984375,-5.625,-0.75,-4.75
1.2499999999999953,0.0,-2.0,-1.0,0.0,-5.0,0.0,-1.0,0.0,0.283447265625,-0.225830078125,-0.81927490234375,0.44439697265625,-0.27490234375,0.58447265625,0.70166015625,2.1875,-2.625,-2.8125
1.2549999999999952,-3.0,-3.0,-1.0,3.0,1.0,-2.0,-3.0,-1.0,0.28338623046875,-0.22674560546875,-0.8193359375,0.44384765625,-0.265625,0.5986328125,0.72265625,5.3125,-3.875,-0.5
1.2599999999999951,-1.0,0.0,1.0,11.0,3.0,-1.0,-1.0,0.0,0.28338623046875,-0.22674560546875,-0.8193359375,0.44384765625,-0.265625,0.5986328125,0.72265625,5.3125,-3.875,-0.5
1.264999999999995,0.0,0.0,-1.0,-1.0,0.0,0.0,0.0,0.0,0.283447265625,-0.2279052734375,-0.81927490234375,0.44329833984375,-0.2880859375,0.60498046875,0.72705078125,7.3125,-4.5,0.6875
1.269999999999995,0.0,0.0,-1.0,-1.0,0.0,0.0,0.0,0.0,0.283447265625,-0.2279052734375,-0.81927490234375,0.44329833984375,-0.2880859375,0.60498046875,0.72705078125,7.3125,-4.5,0.6875
1.2749999999999948,1.0,0.0,2.0,-3.0,9.0,3.0,0.0,-3.0,0.283447265625,-0.22894287109375,-0.8192138671875,0.44287109375,-0.291015625,0.6064453125,0.7333984375,6.6875,-5.0,1.3125
1.2799999999999947,-1.0,-3.0,-7.0,-6.0,9.0,-2.0,0.0,-1.0,0.283203125,-0.2298583984375,-0.819091796875,0.44281005859375,-0.2705078125,0.6220703125,0.73828125,4.3125,-3.625,2.4375
1.2849999999999946,-1.0,-2.0,-1.0,-7.0,5.0,-2.0,0.0,0.0,0.28314208984375,-0.23028564453125,-0.8189697265625,0.44287109375,-0.28076171875,0.62060546875,0.73046875,2.125,-2.125,2.375
1.2899999999999945,-1.0,2.0,-2.0,-1.0,-5.0,0.0,0.0,-3.0,0.28314208984375,-0.23028564453125,-0.8189697265625,0.44287109375,-0.28076171875,0.62060546875,0.73046875,2.125,-2.125,2.375
1.2949999999999944,0.0,0.0,1.0,-1.0,-2.0,-1.0,-2.0,-1.0,0.28314208984375,-0.23028564453125,-0.8189697265625,0.44287109375,-0.28076171875,0.62060546875,0.73046875,2.125,-2.125,2.375
1.2999999999999943,0.0,0.0,3.0,-6.0,-25.0,-1.0,-1.0,1.0,0.28302001953125,-0.2301025390625,-0.8189697265625,0.4429931640625,-0.28515625,0.62353515625,0.7255859375,-1.375,-1.5625,1.6875
1.3049999999999942,0.0,0.0,3.0,-6.0,-25.0,-1.0,-1.0,1.0,0.28302001953125,-0.2301025390625,-0.8189697265625,0.4429931640625,-0.28515625,0.62353515625,0.7255859375,-1.375,-1.5625,1.6875
1.309999999999994,-1.0,0.0,-1.0,-2.0,-16.0,-1.0,-1.0,0.0,0.2828369140625,-0.2293701171875,-0.81915283203125,0.44317626953125,-0.28857421875,0.61376953125,0.7392578125,-3.8125,-0.5625,0.625
1.314999999999994,-1.0,-4.0,-1.0,4.0,0.0,1.0,-1.0,-1.0,0.2828369140625,-0.2293701171875,-0.81915283203125,0.44317626953125,-0.28857421875,0.61376953125,0.7392578125,-3.8125,-0.5625,0.625
1.3199999999999938,-1.0,-1.0,-2.0,1.0,4.0,-2.0,-1.0,-3.0,0.2828369140625,-0.22833251953125,-0.81939697265625,0.4432373046875,-0.2998046875,0.59814453125,0.75,-3.3125,0.5625,0.25
1.3249999999999937,-1.0,-1.0,-2.0,1.0,4.0,-2.0,-1.0,-3.0,0.2828369140625,-0.22833251953125,-0.81939697265625,0.4432373046875,-0.2998046875,0.59814453125,0.75,-3.3125,0.5625,0.25
1.3299999999999936,-2.0,0.0,-2.0,-7.0,-9.0,-6.0,-4.0,0.0,0.28289794921875,-0.2281494140625,-0.8194580078125,0.44317626953125,-0.30712890625,0.59326171875,0.75439453125,0.0,0.9375,-0.4375
1.3349999999999935,0.0,2.0,1.0,5.0,-6.0,0.0,-2.0,-1.0,0.28289794921875,-0.2281494140625,-0.8194580078125,0.44317626953125,-0.30712890625,0.59326171875,0.75439453125,0.0,0.9375,-0.4375
1.3399999999999934,0.0,2.0,1.0,5.0,-6.0,0.0,-2.0,-1.0,0.28289794921875,-0.2281494140625,-0.8194580078125,0.44317626953125,-0.30712890625,0.59326171875,0.75439453125,0.0,0.9375,-0.4375
1.3449999999999933,-1.0,-2.0,-2.0,-8.0,-2.0,-1.0,0.0,0.0,0.2833251953125,-0.22796630859375,-0.81951904296875,0.44287109375,-0.2978515625,0.60595703125,0.755859375,2.5,0.75,-1.0
1.3499999999999932,-1.0,-2.0,-2.0,-8.0,-2.0,-1.0,0.0,0.0,0.2833251953125,-0.22796630859375,-0.81951904296875,0.44287109375,-0.2978515625,0.60595703125,0.755859375,2.5,0.75,-1.0
1.354999999999993,-1.0,-2.0,-2.0,-8.0,-2.0,-1.0,0.0,0.0,0.2833251953125,-0.22796630859375,-0.81951904296875,0.44287109375,-0.2978515625,0.60595703125,0.755859375,2.5,0.75,-1.0
1.359999999999993,-3.0,1.0,1.0,14.0,4.0,1.0,1.0,-3.0,0.28369140625,-0.2275390625,-0.8197021484375,0.44256591796875,-0.2919921875,0.611328125,0.74755859375,0.3125,0.9375,-1.5625
1.3649999999999929,-3.0,1.0,1.0,14.0,4.0,1.0,1.0,-3.0,0.28369140625,-0.22686767578125,-0.82000732421875,0.44232177734375,-0.2861328125,0.60302734375,0.7431640625,-1.9375,-0.125,-1.8125
1.3699999999999928,-1.0,-1.0,-1.0,-5.0,-9.0,-3.0,-3.0,-3.0,0.28350830078125,-0.22637939453125,-0.8204345703125,0.44195556640625,-0.27685546875,0.599609375,0.75244140625,-0.8125,-1.1875,-2.3125
1.3749999999999927,-2.0,-5.0,-4.0,-9.0,-2.0,-4.0,-3.0,-1.0,0.28350830078125,-0.2264404296875,-0.82073974609375,0.44140625,-0.27490234375,0.59765625,0.73291015625,1.75,-2.0,-2.4375
1.3799999999999926,-2.0,-5.0,-2.0,7.0,6.0,0.0,-1.0,-2.0,0.28350830078125,-0.2264404296875,-0.82073974609375,0.44140625,-0.27490234375,0.59765625,0.73291015625,1.75,-2.0,-2.4375
1.3849999999999925,-2.0,-5.0,-2.0,7.0,6.0,0.0,-1.0,-2.0,0.28338623046875,-0.22698974609375,-0.82098388671875,0.440673828125,-0.27294921875,0.60205078125,0.72607421875,4.0,-3.8125,-2.3125
1.3899999999999924,-3.0,0.0,3.0,-3.0,-8.0,-4.0,-3.0,0.0,0.28326416015625,-0.22784423828125,-0.8211669921875,0.43994140625,-0.2705078125,0.6025390625,0.73095703125,5.375,-4.4375,-1.625
1.3949999999999922,-3.0,0.0,3.0,-3.0,-8.0,-4.0,-3.0,0.0,0.28326416015625,-0.22784423828125,-0.8211669921875,0.43994140625,-0.2705078125,0.6025390625,0.73095703125,5.375,-4.4375,-1.625
1.3999999999999921,-3.0,0.0,3.0,-3.0,-8.0,-4.0,-3.0,0.0,0.28326416015625,-0.22784423828125,-0.8211669921875,0.43994140625,-0.2705078125,0.6025390625,0.73095703125,5.375,-4.4375,-1.625
1.404999999999992,-1.0,-5.0,-1.0,-2.0,6.0,3.0,0.0,0.0,0.2830810546875,-0.22900390625,-0.8212890625,0.43927001953125,-0.26611328125,0.607421875,0.716796875,6.125,-5.3125,-1.0
1.409999999999992,-4.0,-1.0,-3.0,8.0,19.0,0.0,0.0,1.0,0.28289794921875,-0.2298583984375,-0.8214111328125,0.43865966796875,-0.279296875,0.62255859375,0.71728515625,3.5625,-5.3125,-1.0625
1.4149999999999918,0.0,-3.0,1.0,-3.0,-3.0,-1.0,-3.0,-1.0,0.28289794921875,-0.2298583984375,-0.8214111328125,0.43865966796875,-0.279296875,0.62255859375,0.71728515625,3.5625,-5.3125,-1.0625
1.4199999999999917,-1.0,-2.0,-2.0,1.0,10.0,-3.0,-1.0,-1.0,0.28253173828125,-0.2303466796875,-0.82171630859375,0.4381103515625,-0.2685546875,0.6220703125,0.7099609375,1.0,-4.6875,-1.625
1.4249999999999916,-4.0,3.0,2.0,9.0,17.0,3.0,0.0,-1.0,0.2823486328125,-0.23046875,-0.82196044921875,0.4376220703125,-0.2685546875,0.6220703125,0.7138671875,0.0,-3.0625,-2.1875
1.4299999999999915,-4.0,3.0,2.0,9.0,17.0,3.0,0.0,-1.0,0.2823486328125,-0.23046875,-0.82196044921875,0.4376220703125,-0.2685546875,0.6220703125,0.7138671875,0.0,-3.0625,-2.1875
1.4349999999999914,-4.0,3.0,2.0,9.0,17.0,3.0,0.0,-1.0,0.2823486328125,-0.23046875,-0.82196044921875,0.4376220703125,-0.2685546875,0.6220703125,0.7138671875,0.0,-3.0625,-2.1875
1.4399999999999913,-2.0,-5.0,-4.0,-4.0,-11.0,-3.0,-1.0,-3.0,0.2823486328125,-0.23046875,-0.82196044921875,0.4376220703125,-0.2685546875,0.6220703125,0.7138671875,0.0,-3.0625,-2.1875
1.4449999999999912,1.0,1.0,4.0,-2.0,2.0,3.0,-2.0,0.0,0.28253173828125,-0.23077392578125,-0.8221435546875,0.4371337890625,-0.263671875,0.63037109375,0.6982421875,0.5,-1.4375,-2.6875
1.449999999999991,1.0,1.0,4.0,-2.0,2.0,3.0,-2.0,0.0,0.2828369140625,-0.2308349609375,-0.82220458984375,0.4366455078125,-0.26123046875,0.6376953125,0.69921875,-0.4375,-0.0625,-3.125
1.454999999999991,-2.0,1.0,0.0,-8.0,-18.0,-2.0,-3.0,-1.0,0.2828369140625,-0.2308349609375,-0.82220458984375,0.4366455078125,-0.26123046875,0.6376953125,0.69921875,-0.4375,-0.0625,-3.125
1.4599999999999909,0.0,-7.0,-2.0,-6.0,-7.0,-2.0,-2.0,0.0,0.283203125,-0.23065185546875,-0.82244873046875,0.43609619140625,-0.2568359375,0.6337890625,0.703125,-1.125,0.6875,-4.5
1.4649999999999908,-1.0,0.0,2.0,-6.0,-4.0,-3.0,1.0,0.0,0.28350830078125,-0.23040771484375,-0.82275390625,0.43548583984375,-0.24755859375,0.62939453125,0.71142578125,-0.875,1.25,-5.3125
1.4699999999999906,0.0,-1.0,0.0,0.0,-9.0,-3.0,-1.0,0.0,0.28399658203125,-0.22998046875,-0.82305908203125,0.434814453125,-0.263671875,0.6396484375,0.7119140625,-1.5625,2.0,-5.625
1.4749999999999905,-2.0,0.0,-3.0,4.0,3.0,3.0,0.0,-1.0,0.28399658203125,-0.22998046875,-0.82305908203125,0.434814453125,-0.263671875,0.6396484375,0.7119140625,-1.5625,2.0,-5.625
1.4799999999999904,-2.0,0.0,-3.0,4.0,3.0,3.0,0.0,-1.0,0.28399658203125,-0.22998046875,-0.82305908203125,0.434814453125,-0.263671875,0.6396484375,0.7119140625,-1.5625,2.0,-5.625
1.4849999999999903,-1.0,-2.0,-3.0,1.0,-8.0,-3.0,0.0,0.0,0.28466796875,-0.2296142578125,-0.8232421875,0.4342041015625,-0.27001953125,0.646484375,0.7021484375,-1.8125,2.3125,-5.1875
1.4899999999999902,-3.0,3.0,0.0,0.0,-3.0,1.0,-1.0,-2.0,0.28546142578125,-0.22918701171875,-0.82342529296875,0.43365478515625,-0.27587890625,0.6396484375,0.7109375,-1.375,3.0625,-5.0
1.4949999999999901,-3.0,3.0,0.0,0.0,-3.0,1.0,-1.0,-2.0,0.28546142578125,-0.22918701171875,-0.82342529296875,0.43365478515625,-0.27587890625,0.6396484375,0.7109375,-1.375,3.0625,-5.0
1.49999999999999,-3.0,3.0,0.0,0.0,-3.0,1.0,-1.0,-2.0,0.28546142578125,-0.22918701171875,-0.82342529296875,0.43365478515625,-0.27587890625,0.6396484375,0.7109375,-1.375,3.0625,-5.0
1.50499999999999,-1.0,-2.0,-3.0,5.0,6.0,0.0,-1.0,-3.0,0.28643798828125,-0.2288818359375,-0.82342529296875,0.43304443359375,-0.291015625,0.65087890625,0.7236328125,0.5,3.5625,-4.625
1.5099999999999898,0.0,0.0,-2.0,1.0,8.0,1.0,-3.0,1.0,0.28765869140625,-0.22869873046875,-0.82342529296875,0.432373046875,-0.30517578125,0.6513671875,0.72021484375,1.4375,3.8125,-4.1875
1.5149999999999897,0.0,-1.0,2.0,-2.0,-1.0,-1.0,-1.0,-2.0,0.2889404296875,-0.228515625,-0.8233642578125,0.4317626953125,-0.3173828125,0.64794921875,0.71533203125,1.6875,3.375,-3.5
1.5199999999999896,0.0,-1.0,2.0,-2.0,-1.0,-1.0,-1.0,-2.0,0.2889404296875,-0.228515625,-0.8233642578125,0.4317626953125,-0.3173828125,0.64794921875,0.71533203125,1.6875,3.375,-3.5
1.5249999999999895,1.0,-1.0,1.0,-6.0,-3.0,-2.0,-1.0,-3.0,0.290283203125,-0.22845458984375,-0.82330322265625,0.43096923828125,-0.337890625,0.63525390625,0.71923828125,3.375,2.4375,-3.0625
1.5299999999999894,1.0,-1.0,1.0,-6.0,-3.0,-2.0,-1.0,-3.0,0.290283203125,-0.22845458984375,-0.82330322265625,0.43096923828125,-0.337890625,0.63525390625,0.71923828125,3.375,2.4375,-3.0625
1.5349999999999893,-1.0,0.0,4.0,12.0,25.0,6.0,2.0,-1.0,0.2916259765625,-0.22882080078125,-0.8231201171875,0.43017578125,-0.345703125,0.62451171875,0.724609375,6.6875,1.5,-1.75
1.5399999999999892,-1.0,0.0,4.0,12.0,25.0,6.0,2.0,-1.0,0.29278564453125,-0.22955322265625,-0.8228759765625,0.42950439453125,-0.33984375,0.61328125,0.73388671875,9.3125,0.5,0.0
1.544999999999989,0.0,-1.0,-5.0,-9.0,-7.0,-3.0,-3.0,-2.0,0.29278564453125,-0.22955322265625,-0.8228759765625,0.42950439453125,-0.33984375,0.61328125,0.73388671875,9.3125,0.5,0.0
1.549999999999989,-3.0,0.0,-1.0,2.0,-4.0,-4.0,0.0,-1.0,0.29388427734375,-0.23101806640625,-0.8223876953125,0.42889404296875,-0.33154296875,0.61572265625,0.73193359375,12.625,-0.5,1.5625
1.5549999999999888,-1.0,-2.0,0.0,-2.0,-7.0,-2.0,-1.0,-1.0,0.29486083984375,-0.23272705078125,-0.82177734375,0.428466796875,-0.3251953125,0.63623046875,0.73291015625,12.5,-1.0625,2.875
1.5599999999999887,0.0,0.0,1.0,-3.0,-8.0,-1.0,-1.0,0.0,0.29486083984375,-0.23272705078125,-0.82177734375,0.428466796875,-0.3251953125,0.63623046875,0.73291015625,12.5,-1.0625,2.875
1.5649999999999886,0.0,0.0,1.0,-3.0,-8.0,-1.0,-1.0,0.0,0.29486083984375,-0.23272705078125,-0.82177734375,0.428466796875,-0.3251953125,0.63623046875,0.73291015625,12.5,-1.0625,2.875
1.5699999999999885,0.0,0.0,1.0,-3.0,-8.0,-1.0,-1.0,0.0,0.29522705078125,-0.23406982421875,-0.8212890625,0.428466796875,-0.310546875,0.654296875,0.72705078125,7.4375,-1.6875,3.75
1.5749999999999884,0.0,0.0,1.0,-3.0,-8.0,-1.0,-1.0,0.0,0.29522705078125,-0.23406982421875,-0.8212890625,0.428466796875,-0.310546875,0.654296875,0.72705078125,7.4375,-1.6875,3.75
1.5799999999999883,1.0,-3.0,-3.0,-6.0,-14.0,-1.0,1.0,0.0,0.29522705078125,-0.23406982421875,-0.8212890625,0.428466796875,-0.310546875,0.654296875,0.72705078125,7.4375,-1.6875,3.75
1.5849999999999882,1.0,-3.0,-3.0,-6.0,-14.0,-1.0,1.0,0.0,0.29498291015625,-0.2344970703125,-0.82110595703125,0.4287109375,-0.30810546875,0.6376953125,0.7421875,2.125,-2.25,3.6875
1.589999999999988,0.0,-2.0,-2.0,1.0,6.0,0.0,-2.0,-1.0,0.29449462890625,-0.2344970703125,-0.821044921875,0.42913818359375,-0.3056640625,0.62158203125,0.73828125,0.1875,-2.3125,4.1875
1.594999999999988,-2.0,-2.0,0.0,2.0,-9.0,-2.0,-1.0,0.0,0.29449462890625,-0.2344970703125,-0.821044921875,0.42913818359375,-0.3056640625,0.62158203125,0.73828125,0.1875,-2.3125,4.1875
1.5999999999999879,-2.0,-2.0,0.0,2.0,-9.0,-2.0,-1.0,0.0,0.29400634765625,-0.23455810546875,-0.821044921875,0.429443359375,-0.306640625,0.611328125,0.72900390625,0.1875,-2.9375,3.75
1.6049999999999878,-2.0,-1.0,-1.0,9.0,17.0,5.0,0.0,0.0,0.29400634765625,-0.23455810546875,-0.821044921875,0.429443359375,-0.306640625,0.611328125,0.72900390625,0.1875,-2.9375,3.75
1.6099999999999877,-2.0,1.0,-5.0,-2.0,-9.0,-5.0,-2.0,-2.0,0.29351806640625,-0.2349853515625,-0.82098388671875,0.42962646484375,-0.3046875,0.61083984375,0.72216796875,2.125,-4.25,3.9375
1.6149999999999876,3.0,-1.0,-4.0,-10.0,-10.0,-1.0,-2.0,-1.0,0.29351806640625,-0.2349853515625,-0.82098388671875,0.42962646484375,-0.3046875,0.61083984375,0.72216796875,2.125,-4.25,3.9375
1.6199999999999875,-1.0,1.0,1.0,-4.0,-11.0,0.0,1.0,1.0,0.29351806640625,-0.2349853515625,-0.82098388671875,0.42962646484375,-0.3046875,0.61083984375,0.72216796875,2.125,-4.25,3.9375
1.6249999999999873,-1.0,0.0,0.0,-4.0,-4.0,-2.0,0.0,-4.0,0.2928466796875,-0.2362060546875,-0.8209228515625,0.42962646484375,-0.287109375,0.60693359375,0.7119140625,5.625,-6.5625,4.1875
1.6299999999999872,-1.0,0.0,0.0,-4.0,-4.0,-2.0,0.0,-4.0,0.2928466796875,-0.2362060546875,-0.8209228515625,0.42962646484375,-0.287109375,0.60693359375,0.7119140625,5.625,-6.5625,4.1875
1.6349999999999871,-1.0,0.0,3.0,1.0,-1.0,0.0,-2.0,0.0,0.2919921875,-0.2376708984375,-0.82080078125,0.4295654296875,-0.271484375,0.60595703125,0.71435546875,6.75,-7.625,4.0
1.639999999999987,-1.0,0.0,3.0,1.0,-1.0,0.0,-2.0,0.0,0.2919921875,-0.2376708984375,-0.82080078125,0.4295654296875,-0.271484375,0.60595703125,0.71435546875,6.75,-7.625,4.0
1.644999999999987,-1.0,0.0,3.0,1.0,-1.0,0.0,-2.0,0.0,0.2919921875,-0.2376708984375,-0.82080078125,0.4295654296875,-0.271484375,0.60595703125,0.71435546875,6.75,-7.625,4.0
1.6499999999999868,0.0,2.0,0.0,4.0,-9.0,1.0,0.0,-3.0,0.2899169921875,-0.24072265625,-0.82073974609375,0.42938232421875,-0.24560546875,0.630859375,0.7138671875,4.0,-7.4375,2.1875
1.6549999999999867,0.0,2.0,0.0,4.0,-9.0,1.0,0.0,-3.0,0.2899169921875,-0.24072265625,-0.82073974609375,0.42938232421875,-0.24560546875,0.630859375,0.7138671875,4.0,-7.4375,2.1875
1.6599999999999866,0.0,-3.0,-1.0,-5.0,-8.0,1.0,-1.0,-1.0,0.28887939453125,-0.2415771484375,-0.8209228515625,0.42926025390625,-0.24560546875,0.6279296875,0.71923828125,2.3125,-6.25,1.0
1.6649999999999865,0.0,-3.0,-6.0,-1.0,4.0,0.0,-1.0,-1.0,0.28887939453125,-0.2415771484375,-0.8209228515625,0.42926025390625,-0.24560546875,0.6279296875,0.71923828125,2.3125,-6.25,1.0
1.6699999999999864,2.0,1.0,0.0,9.0,32.0,7.0,3.0,8.0,0.28887939453125,-0.2415771484375,-0.8209228515625,0.42926025390625,-0.24560546875,0.6279296875,0.71923828125,2.3125,-6.25,1.0
1.6749999999999863,-2.0,-6.0,-3.0,-4.0,-9.0,-3.0,0.0,-4.0,0.288330078125,-0.2425537109375,-0.821044921875,0.42889404296875,-0.248046875,0.63330078125,0.6943359375,3.0625,-5.25,-0.125
1.6799999999999862,-1.0,0.0,1.0,2.0,-10.0,-3.0,0.0,3.0,0.287841796875,-0.24365234375,-0.8211669921875,0.4283447265625,-0.2373046875,0.64404296875,0.697265625,4.125,-4.875,-1.625
1.684999999999986,-1.0,0.0,1.0,2.0,-10.0,-3.0,0.0,3.0,0.287841796875,-0.24365234375,-0.8211669921875,0.4283447265625,-0.2373046875,0.64404296875,0.697265625,4.125,-4.875,-1.625
1.689999999999986,-1.0,0.0,2.0,-2.0,-11.0,-6.0,-3.0,-1.0,0.28759765625,-0.24456787109375,-0.82135009765625,0.4276123046875,-0.24560546875,0.66064453125,0.69482421875,3.25,-4.25,-3.0
1.6949999999999859,-1.0,0.0,-2.0,-5.0,-10.0,-2.0,-1.0,-3.0,0.28759765625,-0.24456787109375,-0.82135009765625,0.4276123046875,-0.24560546875,0.66064453125,0.69482421875,3.25,-4.25,-3.0
1.6999999999999857,-2.0,-4.0,0.0,-1.0,-1.0,-1.0,0.0,-2.0,0.287353515625,-0.2449951171875,-0.8216552734375,0.427001953125,-0.244140625,0.6708984375,0.69580078125,-0.125,-3.0625,-4.1875
1.7049999999999856,0.0,-1.0,-2.0,-4.0,-5.0,-2.0,0.0,-4.0,0.2869873046875,-0.24481201171875,-0.8221435546875,0.42633056640625,-0.24267578125,0.6630859375,0.6923828125,-3.4375,-2.5625,-5.1875
1.7099999999999855,-3.0,-3.0,-5.0,-3.0,0.0,-5.0,-1.0,-2.0,0.2869873046875,-0.24481201171875,-0.8221435546875,0.42633056640625,-0.24267578125,0.6630859375,0.6923828125,-3.4375,-2.5625,-5.1875
1.7149999999999854,-1.0,-3.0,-2.0,17.0,17.0,2.0,-2.0,3.0,0.28656005859375,-0.2440185546875,-0.8228759765625,0.42572021484375,-0.25634765625,0.63916015625,0.70458984375,-4.9375,-2.0,-5.75
1.7199999999999853,0.0,0.0,0.0,0.0,1.0,-2.0,-2.0,-2.0,0.28656005859375,-0.2440185546875,-0.8228759765625,0.42572021484375,-0.25634765625,0.63916015625,0.70458984375,-4.9375,-2.0,-5.75
1.7249999999999852,-2.0,0.0,-5.0,-9.0,-6.0,-4.0,-2.0,0.0,0.286376953125,-0.2437744140625,-0.82330322265625,0.4251708984375,-0.2568359375,0.6396484375,0.69384765625,-2.0,-1.625,-4.1875
1.729999999999985,1.0,0.0,-2.0,-1.0,-3.0,-1.0,-7.0,-1.0,0.286376953125,-0.2437744140625,-0.82330322265625,0.4251708984375,-0.2568359375,0.6396484375,0.69384765625,-2.0,-1.625,-4.1875
1.734999999999985,1.0,1.0,1.0,0.0,2.0,1.0,0.0,0.0,0.2862548828125,-0.24346923828125,-0.82366943359375,0.42474365234375,-0.26123046875,0.6416015625,0.69189453125,-2.5625,-1.375,-3.1875
1.739999999999985,-1.0,-2.0,-2.0,-9.0,-5.0,-2.0,1.0,-3.0,0.2862548828125,-0.24346923828125,-0.82366943359375,0.42474365234375,-0.26123046875,0.6416015625,0.69189453125,-2.5625,-1.375,-3.1875
1.7449999999999848,-1.0,-2.0,-2.0,-9.0,-5.0,-2.0,1.0,-3.0,0.28619384765625,-0.24334716796875,-0.8238525390625,0.42449951171875,-0.2607421875,0.65087890625,0.69677734375,-2.0625,-1.0625,-2.1875
1.7499999999999847,1.0,-2.0,-4.0,0.0,-3.0,-2.0,0.0,0.0,0.2861328125,-0.2430419921875,-0.823974609375,0.42449951171875,-0.26318359375,0.65478515625,0.6953125,-3.5,0.0,-1.0625
1.7549999999999846,0.0,-1.0,0.0,0.0,-27.0,2.0,2.0,0.0,0.2861328125,-0.2430419921875,-0.823974609375,0.42449951171875,-0.26318359375,0.65478515625,0.6953125,-3.5,0.0,-1.0625
1.7599999999999845,-1.0,0.0,0.0,-3.0,-6.0,-2.0,-1.0,-1.0,0.2861328125,-0.2425537109375,-0.82403564453125,0.424560546875,-0.2685546875,0.66455078125,0.6943359375,-4.75,0.6875,-0.875
1.7649999999999844,0.0,0.0,1.0,-6.0,-7.0,0.0,0.0,1.0,0.2861328125,-0.2425537109375,-0.82403564453125,0.424560546875,-0.2685546875,0.66455078125,0.6943359375,-4.75,0.6875,-0.875
1.7699999999999843,0.0,0.0,1.0,-6.0,-7.0,0.0,0.0,1.0,0.2861328125,-0.2425537109375,-0.82403564453125,0.424560546875,-0.2685546875,0.66455078125,0.6943359375,-4.75,0.6875,-0.875
1.7749999999999841,-3.0,-2.0,-1.0,-1.0,-8.0,-3.0,-2.0,-1.0,0.28643798828125,-0.2415771484375,-0.82415771484375,0.42474365234375,-0.2890625,0.65673828125,0.69775390625,-5.875,2.1875,-0.75
1.779999999999984,-3.0,-2.0,-4.0,-7.0,-7.0,-3.0,-1.0,-2.0,0.28717041015625,-0.2408447265625,-0.82403564453125,0.42486572265625,-0.3076171875,0.6611328125,0.69580078125,-3.9375,3.375,-0.125
1.784999999999984,-3.0,-2.0,-4.0,-7.0,-7.0,-3.0,-1.0,-2.0,0.28717041015625,-0.2408447265625,-0.82403564453125,0.42486572265625,-0.3076171875,0.6611328125,0.69580078125,-3.9375,3.375,-0.125
1.7899999999999838,0.0,-3.0,-2.0,-6.0,3.0,0.0,-3.0,-2.0,0.2882080078125,-0.24017333984375,-0.82391357421875,0.4248046875,-0.33056640625,0.6337890625,0.7021484375,-0.9375,3.25,0.4375
1.7949999999999837,-1.0,-1.0,-1.0,-1.0,4.0,-1.0,-1.0,1.0,0.28948974609375,-0.24029541015625,-0.8236083984375,0.42449951171875,-0.33251953125,0.60986328125,0.70361328125,5.75,2.6875,0.75
1.7999999999999836,0.0,-2.0,-2.0,-1.0,7.0,-1.0,-2.0,0.0,0.28948974609375,-0.24029541015625,-0.8236083984375,0.42449951171875,-0.33251953125,0.60986328125,0.70361328125,5.75,2.6875,0.75
1.8049999999999835,-2.0,-1.0,-2.0,-3.0,-5.0,-3.0,-1.0,-1.0,0.2908935546875,-0.24114990234375,-0.82305908203125,0.42413330078125,-0.3359375,0.60205078125,0.71240234375,10.6875,1.625,2.75
1.8099999999999834,0.0,-2.0,-1.0,-5.0,-3.0,1.0,-2.0,0.0,0.2908935546875,-0.24114990234375,-0.82305908203125,0.42413330078125,-0.3359375,0.60205078125,0.71240234375,10.6875,1.625,2.75
1.8149999999999833,0.0,-2.0,-1.0,-5.0,-3.0,1.0,-2.0,0.0,0.2908935546875,-0.24114990234375,-0.82305908203125,0.42413330078125,-0.3359375,0.60205078125,0.71240234375,10.6875,1.625,2.75
1.8199999999999832,-2.0,0.0,-1.0,-2.0,-10.0,-2.0,-2.0,0.0,0.291748046875,-0.2421875,-0.8223876953125,0.4241943359375,-0.32763671875,0.59814453125,0.724609375,10.9375,0.125,5.6875
1.824999999999983,1.0,1.0,0.0,0.0,-2.0,2.0,-2.0,1.0,0.2919921875,-0.243408203125,-0.82171630859375,0.42462158203125,-0.31396484375,0.57958984375,0.73193359375,10.875,-1.5625,8.375
1.829999999999983,1.0,1.0,0.0,0.0,-2.0,2.0,-2.0,1.0,0.2919921875,-0.243408203125,-0.82171630859375,0.42462158203125,-0.31396484375,0.57958984375,0.73193359375,10.875,-1.5625,8.375
1.8349999999999829,0.0,1.0,-2.0,-3.0,-8.0,-1.0,0.0,1.0,0.2918701171875,-0.2447509765625,-0.82098388671875,0.42535400390625,-0.29541015625,0.580078125,0.72998046875,10.0625,-2.625,10.125
1.8399999999999828,-1.0,-3.0,-4.0,-2.0,0.0,-2.0,0.0,-1.0,0.2918701171875,-0.2447509765625,-0.82098388671875,0.42535400390625,-0.29541015625,0.580078125,0.72998046875,10.0625,-2.625,10.125
1.8449999999999827,-1.0,-2.0,2.0,0.0,0.0,-2.0,-1.0,-1.0,0.2913818359375,-0.2459716796875,-0.8203125,0.42626953125,-0.2880859375,0.58203125,0.72998046875,8.3125,-3.3125,10.6875
1.8499999999999825,-1.0,-3.0,-1.0,-4.0,-9.0,0.0,-1.0,0.0,0.2913818359375,-0.2459716796875,-0.8203125,0.42626953125,-0.2880859375,0.58203125,0.72998046875,8.3125,-3.3125,10.6875
1.8549999999999824,-2.0,-4.0,-3.0,0.0,3.0,1.0,0.0,-2.0,0.2904052734375,-0.2467041015625,-0.82000732421875,0.4271240234375,-0.2958984375,0.5771484375,0.72802734375,4.875,-5.8125,10.375
1.8599999999999823,0.0,1.0,1.0,6.0,10.0,0.0,-1.0,2.0,0.2886962890625,-0.2476806640625,-0.81976318359375,0.42816162109375,-0.25390625,0.59521484375,0.7412109375,3.1875,-7.75,10.0625
1.8649999999999822,0.0,1.0,1.0,6.0,10.0,0.0,-1.0,2.0,0.2886962890625,-0.2476806640625,-0.81976318359375,0.42816162109375,-0.25390625,0.59521484375,0.7412109375,3.1875,-7.75,10.0625
1.8699999999999821,-3.0,0.0,-2.0,-8.0,-10.0,-1.0,-2.0,-1.0,0.28662109375,-0.24853515625,-0.8197021484375,0.42919921875,-0.22119140625,0.6259765625,0.73046875,-0.75,-8.125,8.4375
1.874999999999982,-3.0,0.0,-2.0,-8.0,-10.0,-1.0,-2.0,-1.0,0.28436279296875,-0.2489013671875,-0.8199462890625,0.42999267578125,-0.21044921875,0.6455078125,0.7216796875,-4.5,-8.5625,5.125
1.879999999999982,-2.0,-3.0,-1.0,2.0,0.0,-1.0,0.0,-1.0,0.28216552734375,-0.249755859375,-0.82025146484375,0.4302978515625,-0.18798828125,0.69140625,0.72607421875,-3.9375,-9.1875,1.6875
1.8849999999999818,0.0,-2.0,-1.0,-10.0,-9.0,-3.0,0.0,0.0,0.28216552734375,-0.249755859375,-0.82025146484375,0.4302978515625,-0.18798828125,0.69140625,0.72607421875,-3.9375,-9.1875,1.6875
1.8899999999999817,-1.0,1.0,-1.0,9.0,4.0,2.0,-3.0,-1.0,0.280517578125,-0.250732421875,-0.82073974609375,0.429931640625,-0.17529296875,0.71533203125,0.71044921875,-3.0625,-8.0625,-3.3125
1.8949999999999816,-1.0,-2.0,1.0,-1.0,0.0,1.0,0.0,-1.0,0.280517578125,-0.250732421875,-0.82073974609375,0.429931640625,-0.17529296875,0.71533203125,0.71044921875,-3.0625,-8.0625,-3.3125
1.8999999999999815,-1.0,-2.0,1.0,-1.0,0.0,1.0,0.0,-1.0,0.2794189453125,-0.25152587890625,-0.8214111328125,0.428955078125,-0.1875,0.7294921875,0.69775390625,-3.125,-7.0625,-7.375
1.9049999999999814,-1.0,-1.0,-1.0,-4.0,-4.0,-4.0,-2.0,-3.0,0.27911376953125,-0.25238037109375,-0.8221435546875,0.42718505859375,-0.19873046875,0.71826171875,0.68603515625,0.125,-5.6875,-11.5625
1.9099999999999813,-2.0,-1.0,-4.0,-10.0,-15.0,-3.0,-2.0,-1.0,0.27911376953125,-0.25238037109375,-0.8221435546875,0.42718505859375,-0.19873046875,0.71826171875,0.68603515625,0.125,-5.6875,-11.5625
1.9149999999999812,-2.0,-1.0,-4.0,-10.0,-15.0,-3.0,-2.0,-1.0,0.27911376953125,-0.25238037109375,-0.8221435546875,0.42718505859375,-0.19873046875,0.71826171875,0.68603515625,0.125,-5.6875,-11.5625
1.919999999999981,0.0,1.0,1.0,0.0,10.0,2.0,-1.0,-1.0,0.27960205078125,-0.25335693359375,-0.82293701171875,0.4248046875,-0.20556640625,0.71142578125,0.67626953125,3.8125,-3.4375,-15.3125
1.924999999999981,0.0,1.0,-1.0,2.0,1.0,-2.0,0.0,-3.0,0.27960205078125,-0.25335693359375,-0.82293701171875,0.4248046875,-0.20556640625,0.71142578125,0.67626953125,3.8125,-3.4375,-15.3125
1.9299999999999808,-4.0,-2.0,-2.0,-4.0,-15.0,-2.0,2.0,-1.0,0.28070068359375,-0.25421142578125,-0.82366943359375,0.42205810546875,-0.21533203125,0.7275390625,0.67333984375,4.625,-1.1875,-17.75
1.9349999999999807,0.0,0.0,0.0,-1.0,3.0,3.0,-1.0,1.0,0.28070068359375,-0.25421142578125,-0.82366943359375,0.42205810546875,-0.21533203125,0.7275390625,0.67333984375,4.625,-1.1875,-17.75
1.9399999999999806,0.0,0.0,0.0,-1.0,3.0,3.0,-1.0,1.0,0.28070068359375,-0.25421142578125,-0.82366943359375,0.42205810546875,-0.21533203125,0.7275390625,0.67333984375,4.625,-1.1875,-17.75
1.9449999999999805,-2.0,-1.0,-2.0,0.0,-4.0,-3.0,-2.0,-2.0,0.28485107421875,-0.2532958984375,-0.82568359375,0.41595458984375,-0.29638671875,0.671875,0.658203125,2.3125,4.0,-20.5625
1.9499999999999804,-1.0,-1.0,-6.0,-2.0,7.0,-2.0,-1.0,0.0,0.28485107421875,-0.2532958984375,-0.82568359375,0.41595458984375,-0.29638671875,0.671875,0.658203125,2.3125,4.0,-20.5625
1.9549999999999803,-1.0,-1.0,-6.0,-2.0,7.0,-2.0,-1.0,0.0,0.28765869140625,-0.25225830078125,-0.82647705078125,0.41302490234375,-0.32666015625,0.65283203125,0.669921875,3.9375,6.4375,-18.9375
1.9599999999999802,-3.0,-1.0,-1.0,-3.0,1.0,-2.0,-2.0,-2.0,0.28765869140625,-0.25225830078125,-0.82647705078125,0.41302490234375,-0.32666015625,0.65283203125,0.669921875,3.9375,6.4375,-18.9375
1.96499999999998,3.0,-1.0,0.0,-5.0,-7.0,1.0,-1.0,-2.0,0.29400634765625,-0.24981689453125,-0.82757568359375,0.40777587890625,-0.3857421875,0.59912109375,0.67626953125,6.6875,7.875,-13.8125
1.96999999999998,-1.0,0.0,0.0,1.0,2.0,2.0,-2.0,-3.0,0.29400634765625,-0.24981689453125,-0.82757568359375,0.40777587890625,-0.3857421875,0.59912109375,0.67626953125,6.6875,7.875,-13.8125
1.9749999999999799,-1.0,-3.0,-2.0,-1.0,-16.0,-4.0,-1.0,-1.0,0.2967529296875,-0.2489013671875,-0.827880859375,0.40570068359375,-0.3857421875,0.57470703125,0.67626953125,7.9375,6.5,-10.0
1.9799999999999798,-1.0,-3.0,-2.0,-1.0,-16.0,-4.0,-1.0,-1.0,0.2967529296875,-0.2489013671875,-0.827880859375,0.40570068359375,-0.3857421875,0.57470703125,0.67626953125,7.9375,6.5,-10.0
1.9849999999999797,1.0,0.0,-2.0,-4.0,-5.0,0.0,-3.0,-2.0,0.29876708984375,-0.24835205078125,-0.82806396484375,0.40423583984375,-0.37060546875,0.56396484375,0.69384765625,8.5625,4.5,-5.875
1.9899999999999796,-2.0,-1.0,-3.0,-2.0,-5.0,-1.0,1.0,1.0,0.29986572265625,-0.24798583984375,-0.82806396484375,0.403564453125,-0.34619140625,0.568359375,0.7001953125,5.8125,2.75,-1.375
1.9949999999999795,-2.0,-5.0,-1.0,0.0,6.0,0.0,-1.0,-2.0,0.29986572265625,-0.24798583984375,-0.82806396484375,0.403564453125,-0.34619140625,0.568359375,0.7001953125,5.8125,2.75,-1.375
1.9999999999999793,-2.0,-1.0,1.0,-1.0,-1.0,1.0,0.0,-1.0,0.29998779296875,-0.24713134765625,-0.82818603515625,0.40380859375,-0.328125,0.576171875,0.7216796875,0.5,1.625,2.25
2.0049999999999795,-2.0,-1.0,1.0,-1.0,-1.0,1.0,0.0,-1.0,0.29998779296875,-0.24713134765625,-0.82818603515625,0.40380859375,-0.328125,0.576171875,0.7216796875,0.5,1.625,2.25
2.0099999999999794,-1.0,-2.0,-3.0,0.0,-3.0,-3.0,-2.0,1.0,0.2994384765625,-0.24615478515625,-0.828369140625,0.40447998046875,-0.31689453125,0.57861328125,0.71826171875,-3.125,-0.375,4.1875
2.0149999999999793,-3.0,-1.0,1.0,-3.0,-4.0,-4.0,0.0,-1.0,0.2982177734375,-0.24493408203125,-0.82867431640625,0.4053955078125,-0.30859375,0.6005859375,0.7373046875,-6.5625,-2.0,4.875
2.019999999999979,-3.0,-1.0,1.0,-3.0,-4.0,-4.0,0.0,-1.0,0.2982177734375,-0.24493408203125,-0.82867431640625,0.4053955078125,-0.30859375,0.6005859375,0.7373046875,-6.5625,-2.0,4.875
2.024999999999979,-6.0,-2.0,0.0,0.0,0.0,1.0,1.0,-2.0,0.29669189453125,-0.2435302734375,-0.8291015625,0.4066162109375,-0.28515625,0.6259765625,0.7216796875,-11.3125,-2.3125,4.5
2.029999999999979,1.0,-2.0,-3.0,0.0,-2.0,3.0,0.0,-1.0,0.29473876953125,-0.2413330078125,-0.82977294921875,0.4078369140625,-0.28515625,0.64013671875,0.724609375,-17.125,-2.9375,2.875
2.034999999999979,0.0,0.0,0.0,0.0,0.0,-4.0,-4.0,-4.0,0.2926025390625,-0.23870849609375,-0.8306884765625,0.40911865234375,-0.26953125,0.65966796875,0.7177734375,-22.1875,-2.625,0.6875
2.0399999999999787,0.0,-1.0,-4.0,-4.0,7.0,-3.0,-2.0,0.0,0.2926025390625,-0.23870849609375,-0.8306884765625,0.40911865234375,-0.26953125,0.65966796875,0.7177734375,-22.1875,-2.625,0.6875
2.0449999999999786,0.0,-1.0,-4.0,-4.0,7.0,-3.0,-2.0,0.0,0.29052734375,-0.2354736328125,-0.831787109375,0.41021728515625,-0.25,0.666015625,0.7099609375,-25.8125,-1.0,-2.375
2.0499999999999785,-1.0,-1.0,-2.0,-5.0,-5.0,2.0,-2.0,1.0,0.29052734375,-0.2354736328125,-0.831787109375,0.41021728515625,-0.25,0.666015625,0.7099609375,-25.8125,-1.0,-2.375
2.0549999999999784,-2.0,-1.0,1.0,-3.0,-3.0,-2.0,-1.0,0.0,0.29052734375,-0.2354736328125,-0.831787109375,0.41021728515625,-0.25,0.666015625,0.7099609375,-25.8125,-1.0,-2.375
2.0599999999999783,-2.0,-1.0,1.0,-3.0,-3.0,-2.0,-1.0,0.0,0.28887939453125,-0.2322998046875,-0.83294677734375,0.410888671875,-0.2451171875,0.6630859375,0.70458984375,-24.75,0.5625,-5.375
2.064999999999978,-3.0,-1.0,-3.0,-5.0,-1.0,-1.0,0.0,0.0,0.2880859375,-0.2296142578125,-0.83392333984375,0.41094970703125,-0.25439453125,0.68115234375,0.7021484375,-20.4375,2.25,-8.375
2.069999999999978,0.0,1.0,-3.0,-1.0,9.0,-2.0,1.0,-2.0,0.2880859375,-0.2296142578125,-0.83392333984375,0.41094970703125,-0.25439453125,0.68115234375,0.7021484375,-20.4375,2.25,-8.375
2.074999999999978,0.0,1.0,-3.0,-1.0,9.0,-2.0,1.0,-2.0,0.2880859375,-0.2296142578125,-0.83392333984375,0.41094970703125,-0.25439453125,0.68115234375,0.7021484375,-20.4375,2.25,-8.375
2.079999999999978,0.0,1.0,-3.0,-1.0,9.0,-2.0,1.0,-2.0,0.2880859375,-0.2296142578125,-0.83392333984375,0.41094970703125,-0.25439453125,0.68115234375,0.7021484375,-20.4375,2.25,-8.375
2.0849999999999778,-2.0,-5.0,-5.0,-1.0,-7.0,-2.0,1.0,-1.0,0.28863525390625,-0.22412109375,-0.8359375,0.4095458984375,-0.2900390625,0.6787109375,0.70654296875,-17.125,6.375,-14.0625
2.0899999999999777,0.0,2.0,0.0,2.0,3.0,2.0,0.0,-2.0,0.28863525390625,-0.22412109375,-0.8359375,0.4095458984375,-0.2900390625,0.6787109375,0.70654296875,-17.125,6.375,-14.0625
2.0949999999999775,-2.0,0.0,1.0,-6.0,3.0,-2.0,-1.0,-1.0,0.28863525390625,-0.22412109375,-0.8359375,0.4095458984375,-0.2900390625,0.6787109375,0.70654296875,-17.125,6.375,-14.0625
2.0999999999999774,-4.0,-5.0,-5.0,-2.0,-7.0,-1.0,0.0,-1.0,0.28961181640625,-0.221435546875,-0.83685302734375,0.408447265625,-0.29150390625,0.67822265625,0.71875,-14.4375,8.5,-15.1875
2.1049999999999773,-4.0,-5.0,-5.0,-2.0,-7.0,-1.0,0.0,-1.0,0.28961181640625,-0.221435546875,-0.83685302734375,0.408447265625,-0.29150390625,0.67822265625,0.71875,-14.4375,8.5,-15.1875
2.1099999999999772,0.0,-1.0,2.0,-2.0,-3.0,-1.0,-1.0,-1.0,0.29095458984375,-0.21893310546875,-0.837646484375,0.40716552734375,-0.29736328125,0.65966796875,0.71923828125,-11.3125,9.5625,-15.625
2.114999999999977,0.0,-2.0,-2.0,0.0,-1.0,0.0,0.0,-4.0,0.29217529296875,-0.2164306640625,-0.83837890625,0.40618896484375,-0.3134765625,0.64208984375,0.748046875,-10.125,9.5,-13.0625
2.119999999999977,0.0,-2.0,-2.0,0.0,-1.0,0.0,0.0,-4.0,0.29217529296875,-0.2164306640625,-0.83837890625,0.40618896484375,-0.3134765625,0.64208984375,0.748046875,-10.125,9.5,-13.0625
2.124999999999977,-3.0,-4.0,-1.0,-3.0,0.0,-2.0,-3.0,-1.0,0.2930908203125,-0.21435546875,-0.8388671875,0.405517578125,-0.3330078125,0.62109375,0.75244140625,-8.0,7.1875,-8.875
2.129999999999977,1.0,-2.0,0.0,-5.0,-7.0,1.0,0.0,1.0,0.2935791015625,-0.213134765625,-0.83917236328125,0.40521240234375,-0.34814453125,0.6064453125,0.7646484375,-4.1875,3.375,-3.875
2.1349999999999767,1.0,0.0,0.0,-6.0,-15.0,-2.0,-1.0,-1.0,0.2935791015625,-0.213134765625,-0.83917236328125,0.40521240234375,-0.34814453125,0.6064453125,0.7646484375,-4.1875,3.375,-3.875
2.1399999999999766,1.0,0.0,0.0,-6.0,-15.0,-2.0,-1.0,-1.0,0.2935791015625,-0.213134765625,-0.83917236328125,0.40521240234375,-0.34814453125,0.6064453125,0.7646484375,-4.1875,3.375,-3.875
2.1449999999999765,-4.0,0.0,0.0,3.0,4.0,2.0,-1.0,-1.0,0.29351806640625,-0.21258544921875,-0.83929443359375,0.40533447265625,-0.36279296875,0.59326171875,0.76416015625,-1.75,-0.6875,1.1875
2.1499999999999764,-1.0,-1.0,-5.0,-3.0,-2.0,-3.0,-2.0,-1.0,0.29266357421875,-0.2122802734375,-0.8392333984375,0.40625,-0.35693359375,0.58349609375,0.771484375,-3.0625,-3.375,6.6875
2.1549999999999763,-2.0,-1.0,-2.0,4.0,0.0,1.0,-3.0,-2.0,0.29266357421875,-0.2122802734375,-0.8392333984375,0.40625,-0.35693359375,0.58349609375,0.771484375,-3.0625,-3.375,6.6875
2.159999999999976,-1.0,0.0,1.0,6.0,4.0,-5.0,-2.0,0.0,0.29107666015625,-0.21197509765625,-0.83905029296875,0.40777587890625,-0.34375,0.57373046875,0.771484375,-5.1875,-5.5625,10.875
2.164999999999976,-3.0,0.0,2.0,-1.0,-2.0,-1.0,-1.0,1.0,0.28875732421875,-0.211669921875,-0.8388671875,0.4100341796875,-0.314453125,0.583984375,0.771484375,-8.9375,-7.0,13.8125
2.169999999999976,0.0,-1.0,-4.0,0.0,9.0,2.0,-1.0,-1.0,0.28875732421875,-0.211669921875,-0.8388671875,0.4100341796875,-0.314453125,0.583984375,0.771484375,-8.9375,-7.0,13.8125
2.174999999999976,0.0,1.0,-1.0,3.0,1.0,1.0,-1.0,-2.0,0.28594970703125,-0.21112060546875,-0.83868408203125,0.4127197265625,-0.29736328125,0.5830078125,0.75927734375,-12.6875,-7.75,15.5
2.1799999999999757,0.0,1.0,-1.0,3.0,1.0,1.0,-1.0,-2.0,0.28594970703125,-0.21112060546875,-0.83868408203125,0.4127197265625,-0.29736328125,0.5830078125,0.75927734375,-12.6875,-7.75,15.5
2.1849999999999756,-1.0,-3.0,-4.0,-9.0,-11.0,-2.0,-3.0,-2.0,0.28265380859375,-0.21002197265625,-0.8385009765625,0.415771484375,-0.275390625,0.59130859375,0.755859375,-17.875,-8.125,16.3125
2.1899999999999755,-1.0,-3.0,-4.0,-9.0,-11.0,-2.0,-3.0,-2.0,0.28265380859375,-0.21002197265625,-0.8385009765625,0.415771484375,-0.275390625,0.59130859375,0.755859375,-17.875,-8.125,16.3125
2.1949999999999754,-1.0,0.0,2.0,-3.0,3.0,-1.0,0.0,-1.0,0.27923583984375,-0.20831298828125,-0.8385009765625,0.41900634765625,-0.267578125,0.5830078125,0.7412109375,-22.25,-7.3125,15.5
2.1999999999999753,0.0,0.0,0.0,2.0,18.0,1.0,0.0,-1.0,0.27923583984375,-0.20831298828125,-0.8385009765625,0.41900634765625,-0.267578125,0.5830078125,0.7412109375,-22.25,-7.3125,15.5
2.204999999999975,1.0,1.0,1.0,-3.0,-7.0,-3.0,0.0,0.0,0.2760009765625,-0.20599365234375,-0.838623046875,0.4219970703125,-0.27734375,0.5810546875,0.73486328125,-25.3125,-6.625,13.8125
2.209999999999975,-2.0,-3.0,-2.0,-4.0,-4.0,-3.0,-2.0,-1.0,0.2730712890625,-0.20355224609375,-0.83880615234375,0.42474365234375,-0.279296875,0.57470703125,0.7294921875,-24.8125,-5.625,11.875
2.214999999999975,-2.0,-3.0,-2.0,-4.0,-4.0,-3.0,-2.0,-1.0,0.2730712890625,-0.20355224609375,-0.83880615234375,0.42474365234375,-0.279296875,0.57470703125,0.7294921875,-24.8125,-5.625,11.875
2.219999999999975,-1.0,-1.0,2.0,8.0,-4.0,-1.0,-4.0,-1.0,0.2730712890625,-0.20355224609375,-0.83880615234375,0.42474365234375,-0.279296875,0.57470703125,0.7294921875,-24.8125,-5.625,11.875
2.2249999999999748,0.0,-3.0,-2.0,-8.0,-13.0,-4.0,-1.0,-4.0,0.27069091796875,-0.20111083984375,-0.83905029296875,0.427001953125,-0.279296875,0.56201171875,0.728515625,-22.875,-4.1875,9.375
2.2299999999999747,0.0,2.0,0.0,0.0,-9.0,1.0,-3.0,-1.0,0.2694091796875,-0.19952392578125,-0.839111328125,0.428466796875,-0.29541015625,0.55322265625,0.716796875,-14.75,-2.5625,6.5625
2.2349999999999746,-1.0,-4.0,-5.0,-4.0,1.0,-5.0,-2.0,-1.0,0.2694091796875,-0.19952392578125,-0.839111328125,0.428466796875,-0.29541015625,0.55322265625,0.716796875,-14.75,-2.5625,6.5625
2.2399999999999745,-3.0,-2.0,-2.0,-2.0,7.0,-3.0,0.0,-2.0,0.269287109375,-0.1988525390625,-0.8389892578125,0.42901611328125,-0.32568359375,0.55126953125,0.7001953125,-6.5625,-2.0,4.1875
2.2449999999999743,-3.0,-2.0,-2.0,-2.0,7.0,-3.0,0.0,-2.0,0.269287109375,-0.1988525390625,-0.8389892578125,0.42901611328125,-0.32568359375,0.55126953125,0.7001953125,-6.5625,-2.0,4.1875
2.2499999999999742,-2.0,-5.0,-6.0,-6.0,-3.0,-1.0,-2.0,-2.0,0.269287109375,-0.1988525390625,-0.8389892578125,0.42901611328125,-0.32568359375,0.55126953125,0.7001953125,-6.5625,-2.0,4.1875
2.254999999999974,1.0,1.0,3.0,-3.0,-7.0,3.0,0.0,-1.0,0.26983642578125,-0.198974609375,-0.83880615234375,0.42901611328125,-0.32568359375,0.52490234375,0.70361328125,1.4375,-1.1875,2.6875
2.259999999999974,-1.0,-2.0,1.0,1.0,-4.0,-4.0,-1.0,-3.0,0.27081298828125,-0.1998291015625,-0.83837890625,0.42877197265625,-0.31982421875,0.50830078125,0.72314453125,8.375,0.0,2.5625
2.264999999999974,-1.0,-2.0,1.0,1.0,-4.0,-4.0,-1.0,-3.0,0.27081298828125,-0.1998291015625,-0.83837890625,0.42877197265625,-0.31982421875,0.50830078125,0.72314453125,8.375,0.0,2.5625
2.269999999999974,-3.0,-3.0,-4.0,-5.0,0.0,-1.0,-1.0,-1.0,0.27239990234375,-0.20147705078125,-0.8377685546875,0.42816162109375,-0.32421875,0.509765625,0.72705078125,15.3125,0.625,2.0
2.2749999999999737,-2.0,0.0,-2.0,3.0,8.0,-1.0,-1.0,-1.0,0.27239990234375,-0.20147705078125,-0.8377685546875,0.42816162109375,-0.32421875,0.509765625,0.72705078125,15.3125,0.625,2.0
2.2799999999999736,0.0,-2.0,-1.0,-5.0,7.0,2.0,2.0,0.0,0.2763671875,-0.2061767578125,-0.836181640625,0.42645263671875,-0.33349609375,0.5361328125,0.7568359375,20.8125,1.375,2.75
2.2849999999999735,0.0,-2.0,-1.0,1.0,8.0,1.0,1.0,-1.0,0.2763671875,-0.2061767578125,-0.836181640625,0.42645263671875,-0.33349609375,0.5361328125,0.7568359375,20.8125,1.375,2.75
2.2899999999999734,0.0,-2.0,-1.0,1.0,8.0,1.0,1.0,-1.0,0.2763671875,-0.2061767578125,-0.836181640625,0.42645263671875,-0.33349609375,0.5361328125,0.7568359375,20.8125,1.375,2.75
2.2949999999999733,0.0,-3.0,-4.0,1.0,3.0,-1.0,-1.0,-1.0,0.2763671875,-0.2061767578125,-0.836181640625,0.42645263671875,-0.33349609375,0.5361328125,0.7568359375,20.8125,1.375,2.75
2.299999999999973,-2.0,-2.0,-3.0,-10.0,-8.0,-2.0,-1.0,-1.0,0.27801513671875,-0.20782470703125,-0.83544921875,0.4261474609375,-0.3203125,0.546875,0.76513671875,15.5,2.875,3.125
2.304999999999973,-2.0,-1.0,3.0,3.0,-9.0,1.0,0.0,-3.0,0.2789306640625,-0.207763671875,-0.8348388671875,0.42669677734375,-0.28759765625,0.55029296875,0.7841796875,0.1875,3.1875,2.0
2.309999999999973,-1.0,-2.0,-7.0,1.0,7.0,-3.0,-2.0,-1.0,0.2789306640625,-0.207763671875,-0.8348388671875,0.42669677734375,-0.28759765625,0.55029296875,0.7841796875,0.1875,3.1875,2.0
2.314999999999973,0.0,-1.0,-1.0,-9.0,-6.0,-3.0,-1.0,1.0,0.27880859375,-0.20672607421875,-0.83489990234375,0.4271240234375,-0.28125,0.55908203125,0.7783203125,-4.125,3.5625,0.625
2.3199999999999728,-1.0,-2.0,-1.0,-4.0,-5.0,-4.0,0.0,0.0,0.278564453125,-0.20513916015625,-0.835205078125,0.42755126953125,-0.28857421875,0.57421875,0.78271484375,-7.875,3.0625,-1.0
2.3249999999999726,-1.0,-2.0,-1.0,-4.0,-5.0,-4.0,0.0,0.0,0.278564453125,-0.20513916015625,-0.835205078125,0.42755126953125,-0.28857421875,0.57421875,0.78271484375,-7.875,3.0625,-1.0
2.3299999999999725,-1.0,1.0,0.0,0.0,0.0,-1.0,0.0,1.0,0.27813720703125,-0.2034912109375,-0.83563232421875,0.42779541015625,-0.2802734375,0.5849609375,0.77734375,-9.5625,2.4375,-2.5625
2.3349999999999724,-1.0,1.0,0.0,0.0,0.0,-1.0,0.0,1.0,0.27813720703125,-0.2034912109375,-0.83563232421875,0.42779541015625,-0.2802734375,0.5849609375,0.77734375,-9.5625,2.4375,-2.5625
2.3399999999999723,-1.0,-1.0,0.0,2.0,-13.0,1.0,-2.0,2.0,0.27813720703125,-0.2034912109375,-0.83563232421875,0.42779541015625,-0.2802734375,0.5849609375,0.77734375,-9.5625,2.4375,-2.5625
2.344999999999972,0.0,-1.0,0.0,2.0,-3.0,-2.0,-3.0,-1.0,0.277587890625,-0.20184326171875,-0.83624267578125,0.427734375,-0.27294921875,0.59619140625,0.78125,-10.4375,1.75,-4.9375
2.349999999999972,-1.0,4.0,4.0,8.0,5.0,1.0,2.0,-1.0,0.27740478515625,-0.20050048828125,-0.8369140625,0.4271240234375,-0.275390625,0.5966796875,0.765625,-8.0625,1.6875,-7.625
2.354999999999972,-1.0,0.0,-1.0,-3.0,2.0,-3.0,-4.0,-1.0,0.27789306640625,-0.19952392578125,-0.837646484375,0.4259033203125,-0.31103515625,0.60205078125,0.76171875,-4.25,1.125,-10.125
2.359999999999972,-1.0,0.0,-1.0,-3.0,2.0,-3.0,-4.0,-1.0,0.27789306640625,-0.19952392578125,-0.837646484375,0.4259033203125,-0.31103515625,0.60205078125,0.76171875,-4.25,1.125,-10.125
2.364999999999972,-3.0,-4.0,-5.0,-3.0,3.0,-3.0,-2.0,-1.0,0.27789306640625,-0.19952392578125,-0.837646484375,0.4259033203125,-0.31103515625,0.60205078125,0.76171875,-4.25,1.125,-10.125
2.3699999999999717,0.0,-1.0,-3.0,5.0,16.0,0.0,0.0,1.0,0.279052734375,-0.19921875,-0.8382568359375,0.42401123046875,-0.33642578125,0.58935546875,0.75341796875,2.1875,0.6875,-11.3125
2.3749999999999716,-3.0,-1.0,2.0,-1.0,0.0,1.0,-2.0,-2.0,0.28076171875,-0.1998291015625,-0.8387451171875,0.42156982421875,-0.3564453125,0.5810546875,0.7392578125,8.875,0.0,-11.8125
2.3799999999999715,-3.0,-1.0,2.0,-1.0,0.0,1.0,-2.0,-2.0,0.28076171875,-0.1998291015625,-0.8387451171875,0.42156982421875,-0.3564453125,0.5810546875,0.7392578125,8.875,0.0,-11.8125
2.3849999999999714,-2.0,-2.0,-1.0,3.0,1.0,1.0,1.0,0.0,0.282958984375,-0.20135498046875,-0.83905029296875,0.4188232421875,-0.37646484375,0.56591796875,0.7490234375,16.6875,-0.8125,-11.1875
2.3899999999999713,-1.0,-3.0,0.0,0.0,-3.0,1.0,-1.0,-1.0,0.282958984375,-0.20135498046875,-0.83905029296875,0.4188232421875,-0.37646484375,0.56591796875,0.7490234375,16.6875,-0.8125,-11.1875
2.394999999999971,-1.0,-1.0,1.0,-1.0,3.0,2.0,1.0,0.0,0.2852783203125,-0.20361328125,-0.83917236328125,0.41595458984375,-0.3818359375,0.55029296875,0.74755859375,22.25,-1.8125,-9.375
2.399999999999971,-4.0,-3.0,-3.0,0.0,-1.0,-3.0,0.0,-4.0,0.28741455078125,-0.20635986328125,-0.8389892578125,0.41339111328125,-0.38232421875,0.54736328125,0.755859375,24.625,-2.5,-6.25
2.404999999999971,-3.0,-4.0,-1.0,-5.0,1.0,-2.0,-3.0,-1.0,0.28741455078125,-0.20635986328125,-0.8389892578125,0.41339111328125,-0.38232421875,0.54736328125,0.755859375,24.625,-2.5,-6.25
2.409999999999971,-1.0,-3.0,-1.0,5.0,19.0,-1.0,-1.0,-1.0,0.28900146484375,-0.208740234375,-0.83868408203125,0.4117431640625,-0.3779296875,0.5439453125,0.759765625,21.3125,-2.875,-1.75
2.4149999999999707,-2.0,-2.0,-2.0,-7.0,-10.0,-2.0,-1.0,1.0,0.28900146484375,-0.208740234375,-0.83868408203125,0.4117431640625,-0.3779296875,0.5439453125,0.759765625,21.3125,-2.875,-1.75
2.4199999999999706,2.0,1.0,1.0,1.0,8.0,-1.0,2.0,-1.0,0.2894287109375,-0.21044921875,-0.83831787109375,0.4112548828125,-0.35302734375,0.53515625,0.77294921875,14.625,-3.375,3.875
2.4249999999999705,-3.0,0.0,-1.0,-8.0,-23.0,0.0,0.0,1.0,0.28857421875,-0.2115478515625,-0.83807373046875,0.41192626953125,-0.31591796875,0.5419921875,0.78466796875,6.625,-4.75,8.0
2.4299999999999704,-1.0,-1.0,-1.0,0.0,1.0,1.0,-2.0,-1.0,0.28680419921875,-0.21209716796875,-0.83770751953125,0.41351318359375,-0.29736328125,0.576171875,0.7822265625,-1.3125,-6.125,11.375
2.4349999999999703,-1.0,1.0,1.0,10.0,2.0,-2.0,-1.0,-1.0,0.28680419921875,-0.21209716796875,-0.83770751953125,0.41351318359375,-0.29736328125,0.576171875,0.7822265625,-1.3125,-6.125,11.375
2.43999999999997,-1.0,1.0,1.0,10.0,2.0,-2.0,-1.0,-1.0,0.28680419921875,-0.21209716796875,-0.83770751953125,0.41351318359375,-0.29736328125,0.576171875,0.7822265625,-1.3125,-6.125,11.375
2.44499999999997,1.0,1.0,-1.0,3.0,10.0,1.0,0.0,-2.0,0.28411865234375,-0.21173095703125,-0.837646484375,0.41571044921875,-0.28466796875,0.59814453125,0.77978515625,-10.75,-7.625,12.8125
2.44999999999997,-1.0,1.0,1.0,-5.0,4.0,1.0,0.0,-1.0,0.28411865234375,-0.21173095703125,-0.837646484375,0.41571044921875,-0.28466796875,0.59814453125,0.77978515625,-10.75,-7.625,12.8125
2.45499999999997,0.0,-3.0,-4.0,-4.0,-7.0,-4.0,-2.0,-1.0,0.28094482421875,-0.21112060546875,-0.83770751953125,0.4180908203125,-0.25927734375,0.60302734375,0.7705078125,-14.6875,-9.0,12.125
2.4599999999999698,-2.0,-2.0,-2.0,-1.0,1.0,1.0,-2.0,0.0,0.27777099609375,-0.2109375,-0.8377685546875,0.42010498046875,-0.23388671875,0.6201171875,0.76416015625,-13.125,-9.5625,10.25
2.4649999999999697,-2.0,-2.0,-2.0,-1.0,1.0,1.0,-2.0,0.0,0.27777099609375,-0.2109375,-0.8377685546875,0.42010498046875,-0.23388671875,0.6201171875,0.76416015625,-13.125,-9.5625,10.25
2.4699999999999696,0.0,-2.0,-2.0,-1.0,-6.0,-2.0,-1.0,0.0,0.27484130859375,-0.2113037109375,-0.83782958984375,0.42181396484375,-0.21337890625,0.64453125,0.751953125,-11.625,-9.25,8.0
2.4749999999999694,0.0,-2.0,-2.0,-1.0,-6.0,-2.0,-1.0,0.0,0.27252197265625,-0.21173095703125,-0.837890625,0.42291259765625,-0.20556640625,0.65673828125,0.74951171875,-9.9375,-7.375,4.3125
2.4799999999999693,2.0,1.0,1.0,-1.0,-3.0,-1.0,-2.0,-3.0,0.27252197265625,-0.21173095703125,-0.837890625,0.42291259765625,-0.20556640625,0.65673828125,0.74951171875,-9.9375,-7.375,4.3125
2.4849999999999692,0.0,-1.0,-1.0,-1.0,0.0,1.0,-1.0,-1.0,0.27252197265625,-0.21173095703125,-0.837890625,0.42291259765625,-0.20556640625,0.65673828125,0.74951171875,-9.9375,-7.375,4.3125
2.489999999999969,-1.0,-2.0,-2.0,-10.0,-12.0,-4.0,-1.0,1.0,0.2711181640625,-0.21209716796875,-0.83807373046875,0.4232177734375,-0.220703125,0.6572265625,0.72998046875,-7.625,-5.375,-0.375
2.494999999999969,3.0,0.0,1.0,3.0,-2.0,1.0,-1.0,0.0,0.27069091796875,-0.21246337890625,-0.8385009765625,0.422607421875,-0.2509765625,0.64453125,0.72021484375,-3.75,-3.875,-5.0625
2.499999999999969,-2.0,-2.0,-5.0,-1.0,7.0,0.0,-3.0,-1.0,0.27069091796875,-0.21246337890625,-0.8385009765625,0.422607421875,-0.2509765625,0.64453125,0.72021484375,-3.75,-3.875,-5.0625
2.504999999999969,-2.0,1.0,3.0,0.0,13.0,4.0,0.0,-1.0,0.27069091796875,-0.21246337890625,-0.8385009765625,0.422607421875,-0.2509765625,0.64453125,0.72021484375,-3.75,-3.875,-5.0625
2.5099999999999687,-2.0,1.0,3.0,0.0,13.0,4.0,0.0,-1.0,0.27069091796875,-0.21246337890625,-0.8385009765625,0.422607421875,-0.2509765625,0.64453125,0.72021484375,-3.75,-3.875,-5.0625
2.5149999999999686,-2.0,1.0,3.0,0.0,13.0,4.0,0.0,-1.0,0.2713623046875,-0.21319580078125,-0.83880615234375,0.421142578125,-0.2861328125,0.62548828125,0.71337890625,2.8125,-2.375,-7.75
2.5199999999999685,1.0,-3.0,-1.0,-5.0,3.0,-3.0,-1.0,-1.0,0.2713623046875,-0.21319580078125,-0.83880615234375,0.421142578125,-0.2861328125,0.62548828125,0.71337890625,2.8125,-2.375,-7.75
2.5249999999999684,0.0,-1.0,-1.0,3.0,11.0,3.0,0.0,-1.0,0.27301025390625,-0.21466064453125,-0.83892822265625,0.41900634765625,-0.31005859375,0.60546875,0.6943359375,10.6875,-1.25,-9.5
2.5299999999999683,1.0,-1.0,-2.0,2.0,-7.0,1.0,2.0,0.0,0.27520751953125,-0.21661376953125,-0.83892822265625,0.4166259765625,-0.3251953125,0.59912109375,0.697265625,15.6875,-0.625,-9.1875
2.534999999999968,-1.0,2.0,1.0,0.0,-1.0,0.0,-1.0,2.0,0.27520751953125,-0.21661376953125,-0.83892822265625,0.4166259765625,-0.3251953125,0.59912109375,0.697265625,15.6875,-0.625,-9.1875
2.539999999999968,-2.0,-4.0,-3.0,5.0,7.0,-1.0,-1.0,-1.0,0.27520751953125,-0.21661376953125,-0.83892822265625,0.4166259765625,-0.3251953125,0.59912109375,0.697265625,15.6875,-0.625,-9.1875
2.544999999999968,-3.0,-2.0,-1.0,-7.0,-16.0,-1.0,-2.0,-1.0,0.2796630859375,-0.22149658203125,-0.83837890625,0.41217041015625,-0.3310546875,0.55615234375,0.71435546875,23.0625,-0.6875,-5.75
2.549999999999968,-3.0,-2.0,-1.0,-7.0,-16.0,-1.0,-2.0,-1.0,0.2796630859375,-0.22149658203125,-0.83837890625,0.41217041015625,-0.3310546875,0.55615234375,0.71435546875,23.0625,-0.6875,-5.75
2.5549999999999677,-1.0,1.0,3.0,-4.0,-12.0,-2.0,-2.0,-1.0,0.281982421875,-0.22467041015625,-0.837646484375,0.4102783203125,-0.3369140625,0.55859375,0.71240234375,25.875,-0.6875,-2.125
2.5599999999999676,-1.0,1.0,3.0,-4.0,-12.0,-2.0,-2.0,-1.0,0.281982421875,-0.22467041015625,-0.837646484375,0.4102783203125,-0.3369140625,0.55859375,0.71240234375,25.875,-0.6875,-2.125
2.5649999999999675,-1.0,0.0,-2.0,-3.0,5.0,-1.0,-1.0,-2.0,0.281982421875,-0.22467041015625,-0.837646484375,0.4102783203125,-0.3369140625,0.55859375,0.71240234375,25.875,-0.6875,-2.125
2.5699999999999674,-1.0,-1.0,0.0,-2.0,3.0,-1.0,-2.0,-2.0,0.28387451171875,-0.227294921875,-0.8367919921875,0.4093017578125,-0.3330078125,0.5830078125,0.7197265625,20.5625,0.375,1.5
2.5749999999999673,-3.0,-2.0,-3.0,-2.0,-6.0,-4.0,0.0,-2.0,0.2847900390625,-0.228759765625,-0.8360595703125,0.40936279296875,-0.31494140625,0.59814453125,0.7421875,11.5,1.0625,4.625
2.579999999999967,-2.0,-1.0,1.0,1.0,6.0,2.0,-1.0,0.0,0.2847900390625,-0.228759765625,-0.8360595703125,0.40936279296875,-0.31494140625,0.59814453125,0.7421875,11.5,1.0625,4.625
2.584999999999967,-2.0,-2.0,0.0,5.0,-1.0,-2.0,-3.0,-1.0,0.2850341796875,-0.22930908203125,-0.83544921875,0.41009521484375,-0.28369140625,0.61474609375,0.74462890625,3.375,2.4375,5.375
2.589999999999967,-2.0,-2.0,0.0,5.0,-1.0,-2.0,-3.0,-1.0,0.2850341796875,-0.22930908203125,-0.83544921875,0.41009521484375,-0.28369140625,0.61474609375,0.74462890625,3.375,2.4375,5.375
2.594999999999967,-2.0,-1.0,-2.0,-7.0,7.0,1.0,0.0,-2.0,0.28509521484375,-0.22894287109375,-0.8350830078125,0.4110107421875,-0.279296875,0.6142578125,0.72607421875,-2.8125,3.3125,4.3125
2.599999999999967,-2.0,-1.0,-2.0,-7.0,7.0,1.0,0.0,-2.0,0.28509521484375,-0.22894287109375,-0.8350830078125,0.4110107421875,-0.279296875,0.6142578125,0.72607421875,-2.8125,3.3125,4.3125
2.6049999999999667,-3.0,0.0,0.0,3.0,2.0,-8.0,-10.0,0.0,0.284912109375,-0.227783203125,-0.8349609375,0.41204833984375,-0.28564453125,0.62158203125,0.73681640625,-7.8125,3.3125,3.25
2.6099999999999666,-2.0,-5.0,-1.0,-7.0,-12.0,-2.0,-1.0,-6.0,0.284912109375,-0.227783203125,-0.8349609375,0.41204833984375,-0.28564453125,0.62158203125,0.73681640625,-7.8125,3.3125,3.25
2.6149999999999665,2.0,1.0,-6.0,3.0,3.0,15.0,7.0,9.0,0.284912109375,-0.227783203125,-0.8349609375,0.41204833984375,-0.28564453125,0.62158203125,0.73681640625,-7.8125,3.3125,3.25
2.6199999999999664,2.0,0.0,0.0,3.0,-4.0,10.0,-1.0,9.0,0.28466796875,-0.2266845703125,-0.83489990234375,0.4129638671875,-0.2861328125,0.63916015625,0.74169921875,-8.3125,3.3125,2.5625
2.6249999999999662,-6.0,-4.0,1.0,-2.0,-2.0,-16.0,-4.0,-12.0,0.28466796875,-0.2266845703125,-0.83489990234375,0.4129638671875,-0.2861328125,0.63916015625,0.74169921875,-8.3125,3.3125,2.5625
2.629999999999966,-1.0,-4.0,-3.0,5.0,-2.0,-5.0,8.0,4.0,0.2841796875,-0.2254638671875,-0.8350830078125,0.41357421875,-0.29931640625,0.58251953125,0.71630859375,-7.75,-0.125,2.1875
2.634999999999966,-1.0,-4.0,-3.0,5.0,-2.0,-5.0,8.0,4.0,0.2841796875,-0.2254638671875,-0.8350830078125,0.41357421875,-0.29931640625,0.58251953125,0.71630859375,-7.75,-0.125,2.1875
2.639999999999966,-17.0,-7.0,-7.0,-15.0,-9.0,-37.0,-85.0,-61.0,0.28369140625,-0.2244873046875,-0.83526611328125,0.4141845703125,-0.29248046875,0.57421875,0.75634765625,-4.375,0.5,2.3125
2.644999999999966,15.0,22.0,12.0,18.0,23.0,78.0,44.0,14.0,0.28399658203125,-0.22503662109375,-0.834716796875,0.4146728515625,-0.294921875,0.61572265625,0.70947265625,1.6875,0.75,4.3125
2.6499999999999657,2.0,-7.0,-6.0,3.0,-3.0,20.0,10.0,40.0,0.28399658203125,-0.22503662109375,-0.834716796875,0.4146728515625,-0.294921875,0.61572265625,0.70947265625,1.6875,0.75,4.3125
2.6549999999999656,2.0,-7.0,-6.0,3.0,-3.0,20.0,10.0,40.0,0.28399658203125,-0.22503662109375,-0.834716796875,0.4146728515625,-0.294921875,0.61572265625,0.70947265625,1.6875,0.75,4.3125
2.6599999999999655,34.0,12.0,9.0,-1.0,2.0,-56.0,-33.0,20.0,0.2823486328125,-0.22509765625,-0.83453369140625,0.41607666015625,-0.3076171875,0.6337890625,0.71240234375,-5.8125,-6.1875,6.375
2.6649999999999654,-15.0,-18.0,-8.0,-1.0,-9.0,-7.0,4.0,-3.0,0.2823486328125,-0.22509765625,-0.83453369140625,0.41607666015625,-0.3076171875,0.6337890625,0.71240234375,-5.8125,-6.1875,6.375
2.6699999999999653,-21.0,-9.0,-3.0,-6.0,-11.0,8.0,89.0,9.0,0.281982421875,-0.22637939453125,-0.83367919921875,0.41741943359375,-0.31396484375,0.6708984375,0.6572265625,-2.4375,-4.9375,11.0
2.674999999999965,0.0,7.0,8.0,25.0,3.0,10.0,-17.0,-43.0,0.281982421875,-0.22637939453125,-0.83367919921875,0.41741943359375,-0.31396484375,0.6708984375,0.6572265625,-2.4375,-4.9375,11.0
2.679999999999965,0.0,7.0,8.0,25.0,3.0,10.0,-17.0,-43.0,0.281982421875,-0.22637939453125,-0.83367919921875,0.41741943359375,-0.31396484375,0.6708984375,0.6572265625,-2.4375,-4.9375,11.0
2.684999999999965,17.0,11.0,4.0,-23.0,-2.0,-22.0,34.0,61.0,0.28082275390625,-0.22528076171875,-0.8331298828125,0.41986083984375,-0.296875,0.68798828125,0.71923828125,-16.1875,-0.3125,12.125
2.689999999999965,2.0,-4.0,-2.0,-1.0,1.0,3.0,8.0,48.0,0.279052734375,-0.2215576171875,-0.8336181640625,0.42205810546875,-0.275390625,0.57568359375,0.7158203125,-26.0,1.875,6.0
2.6949999999999648,15.0,-1.0,-4.0,2.0,4.0,18.0,69.0,48.0,0.279052734375,-0.2215576171875,-0.8336181640625,0.42205810546875,-0.275390625,0.57568359375,0.7158203125,-26.0,1.875,6.0
2.6999999999999647,-33.0,-9.0,-2.0,7.0,-1.0,-4.0,-47.0,-81.0,0.27630615234375,-0.2183837890625,-0.83599853515625,0.4207763671875,-0.33642578125,0.400390625,0.8427734375,-8.6875,-12.125,-7.125
2.7049999999999645,2.0,8.0,16.0,-1.0,4.0,-59.0,-9.0,-64.0,0.27630615234375,-0.2183837890625,-0.83599853515625,0.4207763671875,-0.33642578125,0.400390625,0.8427734375,-8.6875,-12.125,-7.125
2.7099999999999644,-2.0,0.0,-9.0,-3.0,1.0,20.0,-11.0,24.0,0.276123046875,-0.2218017578125,-0.83734130859375,0.41650390625,-0.302734375,0.384765625,0.8671875,37.5625,-15.625,-12.6875
2.7149999999999643,2.0,-2.0,0.0,-6.0,23.0,20.0,17.0,6.0,0.2813720703125,-0.2337646484375,-0.83477783203125,0.41156005859375,-0.19287109375,0.59228515625,0.75390625,83.5,-0.8125,-8.5
2.7199999999999642,-12.0,-10.0,-2.0,-47.0,-19.0,-26.0,-44.0,-19.0,0.28765869140625,-0.2451171875,-0.83111572265625,0.407958984375,-0.27587890625,0.8701171875,0.6826171875,66.875,4.0625,-3.1875
2.724999999999964,-2.0,2.0,-10.0,18.0,7.0,31.0,-31.0,-39.0,0.28765869140625,-0.2451171875,-0.83111572265625,0.407958984375,-0.27587890625,0.8701171875,0.6826171875,66.875,4.0625,-3.1875
2.729999999999964,8.0,-1.0,-3.0,9.0,-14.0,-32.0,-26.0,90.0,0.28753662109375,-0.24456787109375,-0.8314208984375,0.40771484375,-0.29638671875,0.82861328125,0.658203125,-15.0,-2.1875,-5.875
2.734999999999964,8.0,-1.0,-3.0,9.0,-14.0,-32.0,-26.0,90.0,0.28753662109375,-0.24456787109375,-0.8314208984375,0.40771484375,-0.29638671875,0.82861328125,0.658203125,-15.0,-2.1875,-5.875
2.739999999999964,-19.0,-1.0,5.0,-22.0,-3.0,5.0,-19.0,-42.0,0.28369140625,-0.23797607421875,-0.834228515625,0.4085693359375,-0.27392578125,0.56103515625,0.73974609375,-41.625,-5.9375,-6.9375
2.7449999999999637,-1.0,-1.0,-2.0,11.0,-1.0,-7.0,-12.0,16.0,0.28204345703125,-0.23486328125,-0.83563232421875,0.40869140625,-0.306640625,0.51708984375,0.74462890625,-14.9375,-3.75,-2.125
2.7499999999999636,-1.0,-1.0,-2.0,11.0,-1.0,-7.0,-12.0,16.0,0.28204345703125,-0.23486328125,-0.83563232421875,0.40869140625,-0.306640625,0.51708984375,0.74462890625,-14.9375,-3.75,-2.125
2.7549999999999635,7.0,-1.0,-2.0,2.0,-11.0,-6.0,11.0,24.0,0.28204345703125,-0.23486328125,-0.83563232421875,0.40869140625,-0.306640625,0.51708984375,0.74462890625,-14.9375,-3.75,-2.125
2.7599999999999634,-12.0,-5.0,-2.0,-8.0,-4.0,-16.0,-22.0,-21.0,0.282470703125,-0.23602294921875,-0.8350830078125,0.4088134765625,-0.3017578125,0.60595703125,0.71044921875,7.0625,-1.25,4.5
2.7649999999999633,-12.0,-5.0,-2.0,-8.0,-4.0,-16.0,-22.0,-21.0,0.2825927734375,-0.23760986328125,-0.83428955078125,0.40948486328125,-0.2802734375,0.677734375,0.69384765625,4.125,-1.6875,6.5
2.769999999999963,23.0,-1.0,1.0,-2.0,10.0,9.0,7.0,4.0,0.2825927734375,-0.23760986328125,-0.83428955078125,0.40948486328125,-0.2802734375,0.677734375,0.69384765625,4.125,-1.6875,6.5
2.774999999999963,-19.0,-6.0,-4.0,0.0,4.0,8.0,-17.0,-26.0,0.281494140625,-0.2369384765625,-0.834228515625,0.4107666015625,-0.27734375,0.6865234375,0.70068359375,-12.1875,-2.5,5.6875
2.779999999999963,5.0,2.0,-1.0,0.0,-13.0,-8.0,-2.0,11.0,0.281494140625,-0.2369384765625,-0.834228515625,0.4107666015625,-0.27734375,0.6865234375,0.70068359375,-12.1875,-2.5,5.6875
2.784999999999963,-4.0,2.0,-1.0,0.0,-29.0,1.0,1.0,17.0,0.27923583984375,-0.23272705078125,-0.83538818359375,0.41229248046875,-0.3125,0.60205078125,0.73046875,-29.0,-2.8125,2.75
2.7899999999999627,-4.0,2.0,-1.0,0.0,-29.0,1.0,1.0,17.0,0.2769775390625,-0.229248046875,-0.83642578125,0.41363525390625,-0.29736328125,0.5576171875,0.78759765625,-20.625,-3.0,3.5
2.7949999999999626,-4.0,2.0,-1.0,0.0,-29.0,1.0,1.0,17.0,0.2769775390625,-0.229248046875,-0.83642578125,0.41363525390625,-0.29736328125,0.5576171875,0.78759765625,-20.625,-3.0,3.5
2.7999999999999625,-4.0,-1.0,0.0,-1.0,15.0,-6.0,-14.0,-4.0,0.2764892578125,-0.22821044921875,-0.83624267578125,0.41497802734375,-0.291015625,0.58349609375,0.751953125,-6.375,1.625,7.125
2.8049999999999624,0.0,3.0,3.0,0.0,13.0,4.0,6.0,-4.0,0.2764892578125,-0.22821044921875,-0.83624267578125,0.41497802734375,-0.291015625,0.58349609375,0.751953125,-6.375,1.625,7.125
2.8099999999999623,-15.0,-4.0,-2.0,-2.0,44.0,5.0,1.0,-15.0,0.27655029296875,-0.22705078125,-0.83563232421875,0.416748046875,-0.2890625,0.61669921875,0.74658203125,-7.8125,5.4375,8.625
2.814999999999962,-1.0,6.0,10.0,30.0,17.0,13.0,-7.0,-6.0,0.27655029296875,-0.22705078125,-0.83563232421875,0.416748046875,-0.2890625,0.61669921875,0.74658203125,-7.8125,5.4375,8.625
2.819999999999962,-8.0,-8.0,-4.0,-12.0,14.0,-7.0,-7.0,-4.0,0.27642822265625,-0.2218017578125,-0.835205078125,0.4205322265625,-0.28955078125,0.546875,0.75,-16.5625,9.5625,6.6875
2.824999999999962,1.0,4.0,5.0,1.0,-26.0,-7.0,8.0,-1.0,0.27642822265625,-0.2218017578125,-0.835205078125,0.4205322265625,-0.28955078125,0.546875,0.75,-16.5625,9.5625,6.6875
2.829999999999962,1.0,4.0,5.0,1.0,-26.0,-7.0,8.0,-1.0,0.27642822265625,-0.2218017578125,-0.835205078125,0.4205322265625,-0.28955078125,0.546875,0.75,-16.5625,9.5625,6.6875
2.8349999999999618,-3.0,-6.0,-7.0,-9.0,7.0,-10.0,-7.0,-3.0,0.27630615234375,-0.21832275390625,-0.83538818359375,0.42205810546875,-0.279296875,0.494140625,0.79931640625,-11.9375,10.0625,3.625
2.8399999999999617,0.0,-3.0,-1.0,-9.0,-76.0,-4.0,-6.0,7.0,0.27630615234375,-0.21832275390625,-0.83538818359375,0.42205810546875,-0.279296875,0.494140625,0.79931640625,-11.9375,10.0625,3.625
2.8449999999999616,-2.0,1.0,-2.0,-2.0,-2.0,-3.0,-10.0,-1.0,0.27740478515625,-0.21893310546875,-0.83489990234375,0.42193603515625,-0.27880859375,0.5380859375,0.81494140625,12.125,6.0,1.5
2.8499999999999615,3.0,-5.0,-2.0,1.0,17.0,-4.0,5.0,1.0,0.27740478515625,-0.21893310546875,-0.83489990234375,0.42193603515625,-0.27880859375,0.5380859375,0.81494140625,12.125,6.0,1.5
2.8549999999999613,0.0,-6.0,-2.0,-7.0,-24.0,-9.0,7.0,-4.0,0.280029296875,-0.222412109375,-0.8336181640625,0.4208984375,-0.28466796875,0.58447265625,0.7119140625,25.9375,3.875,0.9375
2.8599999999999612,-3.0,-2.0,-8.0,-25.0,-25.0,-10.0,13.0,20.0,0.280029296875,-0.222412109375,-0.8336181640625,0.4208984375,-0.28466796875,0.58447265625,0.7119140625,25.9375,3.875,0.9375
2.864999999999961,-3.0,-2.0,-8.0,-25.0,-25.0,-10.0,13.0,20.0,0.280029296875,-0.222412109375,-0.8336181640625,0.4208984375,-0.28466796875,0.58447265625,0.7119140625,25.9375,3.875,0.9375
2.869999999999961,6.0,9.0,10.0,21.0,15.0,22.0,14.0,2.0,0.2818603515625,-0.22320556640625,-0.833251953125,0.4200439453125,-0.2939453125,0.59228515625,0.74609375,11.25,5.75,-3.375
2.874999999999961,1.0,2.0,-2.0,12.0,12.0,-1.0,1.0,2.0,0.28326416015625,-0.22454833984375,-0.8330078125,0.4188232421875,-0.27978515625,0.595703125,0.71240234375,11.625,2.0,-5.0
2.879999999999961,-3.0,1.0,5.0,-1.0,39.0,15.0,-5.0,-3.0,0.28326416015625,-0.22454833984375,-0.8330078125,0.4188232421875,-0.27978515625,0.595703125,0.71240234375,11.625,2.0,-5.0
2.8849999999999607,2.0,-1.0,0.0,18.0,46.0,1.0,-7.0,-6.0,0.28485107421875,-0.22772216796875,-0.8323974609375,0.4173583984375,-0.294921875,0.65087890625,0.68798828125,18.3125,-2.5625,-2.4375
2.8899999999999606,2.0,-1.0,0.0,18.0,46.0,1.0,-7.0,-6.0,0.28485107421875,-0.22772216796875,-0.8323974609375,0.4173583984375,-0.294921875,0.65087890625,0.68798828125,18.3125,-2.5625,-2.4375
2.8949999999999605,-3.0,-7.0,-9.0,-30.0,-44.0,-12.0,-7.0,-11.0,0.2852783203125,-0.22930908203125,-0.832275390625,0.41644287109375,-0.3046875,0.6533203125,0.6806640625,6.1875,-4.8125,-2.125
2.8999999999999604,2.0,5.0,4.0,9.0,18.0,14.0,14.0,29.0,0.2852783203125,-0.22930908203125,-0.832275390625,0.41644287109375,-0.3046875,0.6533203125,0.6806640625,6.1875,-4.8125,-2.125
2.9049999999999603,-1.0,-3.0,-2.0,-15.0,-37.0,-3.0,11.0,6.0,0.2852783203125,-0.22930908203125,-0.832275390625,0.41644287109375,-0.3046875,0.6533203125,0.6806640625,6.1875,-4.8125,-2.125
2.90999999999996,-1.0,-3.0,0.0,15.0,15.0,6.0,2.0,-14.0,0.2847900390625,-0.229736328125,-0.83258056640625,0.4158935546875,-0.28466796875,0.6484375,0.7001953125,-1.5625,-5.25,-2.4375
2.91499999999996,-4.0,-3.0,-3.0,-12.0,-13.0,-13.0,-9.0,-4.0,0.283935546875,-0.22918701171875,-0.8333740234375,0.41522216796875,-0.29052734375,0.58154296875,0.71142578125,-3.5625,-5.8125,-3.875
2.91999999999996,-4.0,-3.0,-3.0,-12.0,-13.0,-13.0,-9.0,-4.0,0.283935546875,-0.22918701171875,-0.8333740234375,0.41522216796875,-0.29052734375,0.58154296875,0.71142578125,-3.5625,-5.8125,-3.875
2.92499999999996,0.0,2.0,-3.0,-10.0,-13.0,-5.0,1.0,-4.0,0.28326416015625,-0.22894287109375,-0.83416748046875,0.41424560546875,-0.2841796875,0.5791015625,0.7353515625,-0.4375,-5.375,-5.25
2.9299999999999597,-2.0,0.0,-3.0,-4.0,14.0,3.0,-1.0,-6.0,0.28326416015625,-0.22894287109375,-0.83416748046875,0.41424560546875,-0.2841796875,0.5791015625,0.7353515625,-0.4375,-5.375,-5.25
2.9349999999999596,-2.0,0.0,-3.0,-4.0,14.0,3.0,-1.0,-6.0,0.2838134765625,-0.230224609375,-0.834228515625,0.41290283203125,-0.29443359375,0.5908203125,0.7099609375,9.9375,-3.1875,-4.4375
2.9399999999999595,-4.0,-4.0,-2.0,3.0,1.0,-5.0,-19.0,-15.0,0.2838134765625,-0.230224609375,-0.834228515625,0.41290283203125,-0.29443359375,0.5908203125,0.7099609375,9.9375,-3.1875,-4.4375
2.9449999999999594,1.0,1.0,0.0,-10.0,14.0,2.0,-4.0,-2.0,0.2838134765625,-0.230224609375,-0.834228515625,0.41290283203125,-0.29443359375,0.5908203125,0.7099609375,9.9375,-3.1875,-4.4375
2.9499999999999593,-2.0,0.0,-1.0,-1.0,-2.0,-3.0,10.0,-1.0,0.28448486328125,-0.23138427734375,-0.834228515625,0.41180419921875,-0.29541015625,0.6279296875,0.7080078125,7.4375,-1.9375,-3.9375
2.954999999999959,-1.0,0.0,-2.0,4.0,17.0,1.0,-1.0,3.0,0.28448486328125,-0.23138427734375,-0.834228515625,0.41180419921875,-0.29541015625,0.6279296875,0.7080078125,7.4375,-1.9375,-3.9375
2.959999999999959,0.0,0.0,0.0,3.0,-8.0,7.0,4.0,6.0,0.28466796875,-0.2314453125,-0.83447265625,0.4111328125,-0.29150390625,0.62744140625,0.7041015625,-0.1875,-1.5625,-3.6875
2.964999999999959,-1.0,2.0,4.0,5.0,-13.0,-1.0,2.0,-3.0,0.284423828125,-0.23077392578125,-0.83502197265625,0.41064453125,-0.29248046875,0.6171875,0.71728515625,-3.9375,-1.875,-4.0625
2.969999999999959,-3.0,-1.0,-3.0,-8.0,-2.0,-5.0,-2.0,-5.0,0.28448486328125,-0.23065185546875,-0.8353271484375,0.4100341796875,-0.2802734375,0.6201171875,0.73828125,0.125,-0.375,-4.3125
2.974999999999959,-3.0,-1.0,-3.0,-8.0,-2.0,-5.0,-2.0,-5.0,0.28448486328125,-0.23065185546875,-0.8353271484375,0.4100341796875,-0.2802734375,0.6201171875,0.73828125,0.125,-0.375,-4.3125
2.9799999999999587,-1.0,-1.0,0.0,6.0,-10.0,-3.0,-3.0,1.0,0.28472900390625,-0.23040771484375,-0.835693359375,0.4093017578125,-0.29638671875,0.5927734375,0.74560546875,2.125,-0.0625,-4.125
2.9849999999999586,0.0,-2.0,-1.0,-4.0,8.0,-6.0,-3.0,-2.0,0.28533935546875,-0.23077392578125,-0.835693359375,0.40863037109375,-0.29052734375,0.59814453125,0.7119140625,4.4375,0.8125,-3.1875
2.9899999999999585,-1.0,-5.0,-6.0,1.0,-4.0,-9.0,-3.0,-1.0,0.2861328125,-0.23175048828125,-0.83551025390625,0.4078369140625,-0.29638671875,0.61962890625,0.708984375,7.3125,0.0,-2.5625
2.9949999999999584,-1.0,-1.0,-1.0,0.0,-6.0,0.0,-3.0,1.0,0.2861328125,-0.23175048828125,-0.83551025390625,0.4078369140625,-0.29638671875,0.61962890625,0.708984375,7.3125,0.0,-2.5625
2.9999999999999583,0.0,1.0,2.0,-5.0,-10.0,1.0,0.0,1.0,0.28680419921875,-0.2325439453125,-0.8353271484375,0.40728759765625,-0.296875,0.6328125,0.70849609375,5.0625,0.0625,-1.5625
3.004999999999958,-3.0,-2.0,-3.0,2.0,-2.0,-2.0,-2.0,-4.0,0.28680419921875,-0.2325439453125,-0.8353271484375,0.40728759765625,-0.296875,0.6328125,0.70849609375,5.0625,0.0625,-1.5625
3.009999999999958,-3.0,-2.0,-3.0,2.0,-2.0,-2.0,-2.0,-4.0,0.28704833984375,-0.23260498046875,-0.83538818359375,0.40704345703125,-0.2958984375,0.61962890625,0.71484375,0.6875,0.0,-1.3125
3.014999999999958,-5.0,1.0,0.0,25.0,30.0,2.0,-1.0,-3.0,0.2867431640625,-0.23248291015625,-0.83563232421875,0.40673828125,-0.29345703125,0.60791015625,0.73974609375,-0.0625,-1.625,-1.375
3.019999999999958,-2.0,-6.0,-6.0,-5.0,-8.0,6.0,7.0,2.0,0.28717041015625,-0.23406982421875,-0.8353271484375,0.40618896484375,-0.31201171875,0.63916015625,0.734375,9.5,-3.0625,0.8125
3.0249999999999577,-5.0,-3.0,2.0,-3.0,0.0,-8.0,-20.0,-22.0,0.28717041015625,-0.23406982421875,-0.8353271484375,0.40618896484375,-0.31201171875,0.63916015625,0.734375,9.5,-3.0625,0.8125
3.0299999999999576,-5.0,-3.0,2.0,-3.0,0.0,-8.0,-20.0,-22.0,0.287109375,-0.23516845703125,-0.83514404296875,0.40594482421875,-0.306640625,0.6103515625,0.7255859375,6.8125,-3.75,1.9375
3.0349999999999575,5.0,3.0,4.0,4.0,0.0,20.0,20.0,18.0,0.287109375,-0.23516845703125,-0.83514404296875,0.40594482421875,-0.306640625,0.6103515625,0.7255859375,6.8125,-3.75,1.9375
3.0399999999999574,13.0,7.0,3.0,1.0,0.0,-6.0,8.0,42.0,0.28692626953125,-0.23577880859375,-0.8349609375,0.4061279296875,-0.27978515625,0.60986328125,0.72705078125,3.1875,-1.125,2.6875
3.0449999999999573,13.0,7.0,3.0,1.0,0.0,-6.0,8.0,42.0,0.28692626953125,-0.23577880859375,-0.8349609375,0.4061279296875,-0.27978515625,0.60986328125,0.72705078125,3.1875,-1.125,2.6875
3.049999999999957,-15.0,-8.0,-8.0,-9.0,-7.0,-16.0,-24.0,-25.0,0.28692626953125,-0.23577880859375,-0.8349609375,0.4061279296875,-0.27978515625,0.60986328125,0.72705078125,3.1875,-1.125,2.6875
3.054999999999957,19.0,1.0,1.0,2.0,0.0,-5.0,13.0,39.0,0.286865234375,-0.235595703125,-0.8349609375,0.40631103515625,-0.29541015625,0.6005859375,0.712890625,-0.3125,-0.4375,1.5625
3.059999999999957,-49.0,-15.0,-13.0,-9.0,-4.0,-18.0,-45.0,-108.0,0.286865234375,-0.235595703125,-0.8349609375,0.40631103515625,-0.29541015625,0.6005859375,0.712890625,-0.3125,-0.4375,1.5625
3.064999999999957,-49.0,-15.0,-13.0,-9.0,-4.0,-18.0,-45.0,-108.0,0.2867431640625,-0.2364501953125,-0.8350830078125,0.40557861328125,-0.2998046875,0.6240234375,0.74072265625,5.4375,-4.125,-1.625
3.0699999999999568,39.0,-2.0,4.0,9.0,-6.0,15.0,17.0,69.0,0.2867431640625,-0.2364501953125,-0.8350830078125,0.40557861328125,-0.2998046875,0.6240234375,0.74072265625,5.4375,-4.125,-1.625
3.0749999999999567,-25.0,-2.0,-6.0,-14.0,-11.0,-18.0,-28.0,-45.0,0.28729248046875,-0.2392578125,-0.8349609375,0.40386962890625,-0.27294921875,0.66943359375,0.69482421875,14.875,-5.875,-5.5
3.0799999999999566,6.0,0.0,-3.0,2.0,3.0,0.0,14.0,25.0,0.28778076171875,-0.23919677734375,-0.8350830078125,0.4031982421875,-0.3271484375,0.69921875,0.64599609375,-5.125,-2.0,-3.9375
3.0849999999999564,-18.0,-4.0,1.0,2.0,3.0,-7.0,-22.0,-33.0,0.28692626953125,-0.2374267578125,-0.83514404296875,0.40472412109375,-0.3212890625,0.70166015625,0.64892578125,-20.0,-1.375,5.4375
3.0899999999999563,-18.0,-4.0,1.0,2.0,3.0,-7.0,-22.0,-33.0,0.28692626953125,-0.2374267578125,-0.83514404296875,0.40472412109375,-0.3212890625,0.70166015625,0.64892578125,-20.0,-1.375,5.4375
3.0949999999999562,-1.0,-9.0,-2.0,-3.0,-7.0,0.0,8.0,-9.0,0.28192138671875,-0.22772216796875,-0.83758544921875,0.4088134765625,-0.302734375,0.4716796875,0.765625,-26.25,-4.5625,1.4375
3.099999999999956,1.0,5.0,0.0,2.0,2.0,-3.0,5.0,-25.0,0.28192138671875,-0.22772216796875,-0.83758544921875,0.4088134765625,-0.302734375,0.4716796875,0.765625,-26.25,-4.5625,1.4375
3.104999999999956,1.0,5.0,0.0,2.0,2.0,-3.0,5.0,-25.0,0.28192138671875,-0.22772216796875,-0.83758544921875,0.4088134765625,-0.302734375,0.4716796875,0.765625,-26.25,-4.5625,1.4375
3.109999999999956,-17.0,-7.0,-1.0,-12.0,-6.0,-16.0,-23.0,-31.0,0.2811279296875,-0.2286376953125,-0.8385009765625,0.40692138671875,-0.26513671875,0.42724609375,0.787109375,16.1875,-8.0,-5.9375
3.114999999999956,-17.0,-7.0,-1.0,-12.0,-6.0,-16.0,-23.0,-31.0,0.2811279296875,-0.2286376953125,-0.8385009765625,0.40692138671875,-0.26513671875,0.42724609375,0.787109375,16.1875,-8.0,-5.9375
3.1199999999999557,4.0,0.0,0.0,4.0,-1.0,4.0,8.0,-3.0,0.2811279296875,-0.2286376953125,-0.8385009765625,0.40692138671875,-0.26513671875,0.42724609375,0.787109375,16.1875,-8.0,-5.9375
3.1249999999999556,0.0,-2.0,-3.0,4.0,-3.0,1.0,15.0,10.0,0.2845458984375,-0.2353515625,-0.83697509765625,0.40386962890625,-0.29150390625,0.5751953125,0.75048828125,50.5,-0.6875,-3.6875
3.1299999999999555,0.0,-2.0,-3.0,4.0,-3.0,1.0,15.0,10.0,0.2845458984375,-0.2353515625,-0.83697509765625,0.40386962890625,-0.29150390625,0.5751953125,0.75048828125,50.5,-0.6875,-3.6875
3.1349999999999554,11.0,2.0,-2.0,3.0,22.0,4.0,9.0,20.0,0.28875732421875,-0.24346923828125,-0.83416748046875,0.40191650390625,-0.2890625,0.78076171875,0.6767578125,46.6875,2.75,2.0625
3.1399999999999553,11.0,2.0,-2.0,3.0,22.0,4.0,9.0,20.0,0.28875732421875,-0.24346923828125,-0.83416748046875,0.40191650390625,-0.2890625,0.78076171875,0.6767578125,46.6875,2.75,2.0625
3.144999999999955,-6.0,-7.0,-1.0,-6.0,-12.0,-21.0,-3.0,6.0,0.28955078125,-0.244873046875,-0.83349609375,0.40185546875,-0.275390625,0.791015625,0.6591796875,-0.375,0.8125,-1.3125
3.149999999999955,5.0,7.0,7.0,2.0,15.0,-1.0,-1.0,21.0,0.287109375,-0.23956298828125,-0.835205078125,0.40325927734375,-0.3017578125,0.65380859375,0.7158203125,-36.875,-1.1875,-2.3125
3.154999999999955,2.0,-2.0,-4.0,5.0,1.0,4.0,11.0,25.0,0.287109375,-0.23956298828125,-0.835205078125,0.40325927734375,-0.3017578125,0.65380859375,0.7158203125,-36.875,-1.1875,-2.3125
3.159999999999955,-1.0,0.0,-1.0,2.0,-16.0,-3.0,-8.0,-5.0,0.28509521484375,-0.23468017578125,-0.83685302734375,0.4041748046875,-0.30029296875,0.5341796875,0.74658203125,-26.625,-0.0625,-2.4375
3.1649999999999547,-1.0,0.0,-1.0,2.0,-16.0,-3.0,-8.0,-5.0,0.28509521484375,-0.23468017578125,-0.83685302734375,0.4041748046875,-0.30029296875,0.5341796875,0.74658203125,-26.625,-0.0625,-2.4375
3.1699999999999546,14.0,-1.0,-5.0,1.0,1.0,4.0,17.0,18.0,0.28558349609375,-0.234130859375,-0.83673095703125,0.4044189453125,-0.30615234375,0.576171875,0.720703125,0.3125,3.0625,1.5625
3.1749999999999545,-10.0,7.0,4.0,2.0,10.0,-5.0,-10.0,-8.0,0.28662109375,-0.23504638671875,-0.83599853515625,0.4046630859375,-0.30078125,0.669921875,0.69677734375,3.75,3.25,2.5625
3.1799999999999544,8.0,0.0,-8.0,-2.0,-3.0,-4.0,5.0,22.0,0.28662109375,-0.23504638671875,-0.83599853515625,0.4046630859375,-0.30078125,0.669921875,0.69677734375,3.75,3.25,2.5625
3.1849999999999543,-11.0,-2.0,1.0,-2.0,-3.0,-4.0,-1.0,0.0,0.2864990234375,-0.23406982421875,-0.8359375,0.40533447265625,-0.29541015625,0.65673828125,0.716796875,-8.0,2.0625,1.625
3.189999999999954,5.0,4.0,0.0,-2.0,-9.0,0.0,3.0,10.0,0.2864990234375,-0.23406982421875,-0.8359375,0.40533447265625,-0.29541015625,0.65673828125,0.716796875,-8.0,2.0625,1.625
3.194999999999954,-3.0,-1.0,-2.0,-8.0,-17.0,-4.0,-2.0,0.0,0.28582763671875,-0.2318115234375,-0.83636474609375,0.4063720703125,-0.302734375,0.62646484375,0.7392578125,-14.6875,2.5,1.4375
3.199999999999954,6.0,1.0,0.0,5.0,-6.0,10.0,9.0,9.0,0.28582763671875,-0.2318115234375,-0.83636474609375,0.4063720703125,-0.302734375,0.62646484375,0.7392578125,-14.6875,2.5,1.4375
3.204999999999954,-6.0,-5.0,-9.0,-9.0,-20.0,-7.0,-4.0,1.0,0.28515625,-0.22967529296875,-0.83648681640625,0.40771484375,-0.30029296875,0.61572265625,0.7490234375,-13.375,3.25,4.0625
3.209999999999954,9.0,7.0,2.0,18.0,42.0,18.0,48.0,29.0,0.28472900390625,-0.2281494140625,-0.8363037109375,0.4093017578125,-0.30712890625,0.65625,0.73046875,-13.0625,2.75,6.0
3.2149999999999537,-25.0,-8.0,1.0,-3.0,-17.0,-5.0,3.0,-9.0,0.28472900390625,-0.2281494140625,-0.8363037109375,0.4093017578125,-0.30712890625,0.65625,0.73046875,-13.0625,2.75,6.0
3.2199999999999536,3.0,6.0,1.0,19.0,54.0,18.0,15.0,4.0,0.28424072265625,-0.22747802734375,-0.83575439453125,0.41107177734375,-0.29541015625,0.67236328125,0.69189453125,-11.5,1.125,8.375
3.2249999999999535,3.0,6.0,1.0,19.0,54.0,18.0,15.0,4.0,0.28424072265625,-0.22747802734375,-0.83575439453125,0.41107177734375,-0.29541015625,0.67236328125,0.69189453125,-11.5,1.125,8.375
3.2299999999999534,-2.0,-1.0,1.0,20.0,17.0,-1.0,-11.0,-4.0,0.28424072265625,-0.22747802734375,-0.83575439453125,0.41107177734375,-0.29541015625,0.67236328125,0.69189453125,-11.5,1.125,8.375
3.2349999999999532,3.0,-4.0,-4.0,-12.0,-1.0,1.0,23.0,18.0,0.2833251953125,-0.2227783203125,-0.836181640625,0.41339111328125,-0.29150390625,0.5673828125,0.71630859375,-27.8125,8.3125,4.5625
3.239999999999953,-7.0,-1.0,-2.0,-29.0,-49.0,-13.0,-8.0,14.0,0.2821044921875,-0.21588134765625,-0.83721923828125,0.41583251953125,-0.30517578125,0.4970703125,0.84375,-31.9375,13.3125,2.1875
3.244999999999953,-14.0,-5.0,-3.0,29.0,34.0,-10.0,-20.0,-12.0,0.2821044921875,-0.21588134765625,-0.83721923828125,0.41583251953125,-0.30517578125,0.4970703125,0.84375,-31.9375,13.3125,2.1875
3.249999999999953,-14.0,-5.0,-3.0,29.0,34.0,-10.0,-20.0,-12.0,0.2821044921875,-0.21588134765625,-0.83721923828125,0.41583251953125,-0.30517578125,0.4970703125,0.84375,-31.9375,13.3125,2.1875
3.254999999999953,14.0,3.0,3.0,-16.0,-29.0,13.0,22.0,3.0,0.2825927734375,-0.2142333984375,-0.837158203125,0.41644287109375,-0.2861328125,0.49560546875,0.78125,-1.0625,8.5,1.3125
3.2599999999999527,14.0,3.0,3.0,-16.0,-29.0,13.0,22.0,3.0,0.2825927734375,-0.2142333984375,-0.837158203125,0.41644287109375,-0.2861328125,0.49560546875,0.78125,-1.0625,8.5,1.3125
3.2649999999999526,-6.0,-6.0,-3.0,-11.0,-49.0,-11.0,-14.0,-8.0,0.2825927734375,-0.2142333984375,-0.837158203125,0.41644287109375,-0.2861328125,0.49560546875,0.78125,-1.0625,8.5,1.3125
3.2699999999999525,1.0,0.0,-2.0,-18.0,-17.0,-1.0,7.0,0.0,0.2869873046875,-0.21630859375,-0.83648681640625,0.41375732421875,-0.32763671875,0.51708984375,0.71044921875,24.6875,4.6875,-4.9375
