time,channel_1,channel_2,channel_3,channel_4,channel_5,channel_6,channel_7,channel_8,orientation_x,orientation_y,orientation_z,orientation_w,acceleration_x,acceleration_y,acceleration_z,gyroscope_x,gyroscope_y,gyroscope_z
0.005,0.0,-2.0,-3.0,-7.0,-13.0,3.0,2.0,0.0,-0.0640869140625,-0.00225830078125,-0.38751220703125,-0.919677734375,0.04443359375,0.16259765625,1.00732421875,9.0625,-3.0,1.625
0.01,-3.0,-3.0,-7.0,-6.0,-7.0,-4.0,-2.0,-3.0,-0.068359375,-0.002197265625,-0.389892578125,-0.9183349609375,0.07763671875,0.1513671875,1.017578125,9.6875,-3.375,9.0625
0.015,-2.0,-2.0,0.0,5.0,1.0,1.0,-1.0,-1.0
0.02,-1.0,-2.0,-3.0,-13.0,-32.0,-13.0,-4.0,-1.0,-0.0709228515625,-0.001953125,-0.3914794921875,-0.91748046875,0.0732421875,0.15087890625,1.0244140625,12.25,-5.0,10.5
0.025,-1.0,-1.0,-2.0,1.0,16.0,0.0,-1.0,-2.0,-0.07794189453125,-0.0006103515625,-0.39544677734375,-0.91522216796875,0.07958984375,0.13671875,1.0068359375,20.125,-11.625,14.0625
0.03,-3.0,-2.0,3.0,7.0,-31.0,-16.0,2.0,0.0
0.035,-1.0,-1.0,-2.0,-1.0,-7.0,-1.0,-3.0,-3.0,-0.08282470703125,0.000732421875,-0.39788818359375,-0.91375732421875,0.103515625,0.126953125,1.0078125,25.0625,-14.75,16.0625
0.04,0.0,-1.0,-1.0,-1.0,19.0,11.0,-3.0,-2.0
0.045,0.0,-2.0,-1.0,1.0,37.0,6.0,-1.0,0.0,-0.08935546875,0.00115966796875,-0.400634765625,-0.91192626953125,0.11181640625,0.16943359375,0.99267578125,33.5,-13.1875,18.3125
0.05,-0.09661865234375,0.00140380859375,-0.403564453125,-0.909912109375,0.0849609375,0.21875,1.0087890625,35.6875,-16.25,20.1875
0.055,-2.0,0.0,1.0,11.0,26.0,8.0,2.0,-2.0
0.06,0.0,-4.0,-5.0,-7.0,-3.0,-3.0,-3.0,0.0,-0.10308837890625,0.0025634765625,-0.40631103515625,-0.907958984375,0.09375,0.2421875,0.99951171875,28.5625,-19.3125,19.8125
0.065,0.0,-2.0,-2.0,-5.0,-3.0,0.0,1.0,0.0
0.07,-1.0,-3.0,-3.0,-5.0,4.0,-3.0,-2.0,-2.0,-0.108154296875,0.00457763671875,-0.408935546875,-0.9061279296875,0.1142578125,0.212890625,0.97021484375,21.0,-19.375,18.875
0.075,-0.1123046875,0.007080078125,-0.41180419921875,-0.90435791015625,0.11328125,0.1826171875,1.01708984375,18.375,-20.875,20.125
0.08,0.0,-2.0,0.0,-1.0,-4.0,2.0,-1.0,-1.0
0.085,-1.0,-2.0,-5.0,-5.0,-21.0,-18.0,0.0,0.0,-0.11749267578125,0.00933837890625,-0.4149169921875,-0.9022216796875,0.11572265625,0.18896484375,0.99853515625,24.4375,-22.125,22.125
0.09
0.095,-3.0,1.0,1.0,0.0,1.0,3.0,-1.0,-1.0
0.1,-1.0,-4.0,-5.0,-9.0,7.0,7.0,-1.0,-1.0,-0.12384033203125,0.0113525390625,-0.41790771484375,-0.89996337890625,0.1171875,0.19091796875,0.9892578125,31.5,-24.375,21.875
0.105,-1.0,-1.0,0.0,5.0,20.0,16.0,2.0,-1.0,-0.131103515625,0.01336669921875,-0.4210205078125,-0.8974609375,0.12939453125,0.205078125,0.98486328125,36.4375,-26.1875,22.625
0.11,2.0,-1.0,0.0,-2.0,-22.0,-7.0,-1.0,-1.0
0.115,-2.0,-2.0,-5.0,-4.0,-3.0,4.0,-3.0,0.0,-0.13934326171875,0.01483154296875,-0.42425537109375,-0.8946533203125,0.1474609375,0.22998046875,0.95361328125,41.3125,-25.1875,23.875
0.12,-3.0,-1.0,-2.0,2.0,-4.0,0.0,-2.0,-2.0
0.125,-1.0,-3.0,-1.0,-2.0,4.0,1.0,0.0,-3.0,-0.1480712890625,0.0157470703125,-0.42767333984375,-0.89166259765625,0.1591796875,0.23974609375,0.935546875,45.375,-22.875,24.6875
0.13,-2.0,-4.0,-4.0,-8.0,-13.0,0.0,-1.0,-2.0
0.135,-2.0,-1.0,-1.0,-2.0,-13.0,-5.0,-3.0,-2.0,-0.15673828125,0.0164794921875,-0.4306640625,-0.88873291015625,0.15625,0.26806640625,0.93798828125,44.875,-23.1875,22.3125
0.14,-0.16461181640625,0.017578125,-0.4324951171875,-0.8863525390625,0.15283203125,0.302734375,0.939453125,37.6875,-24.875,16.25
0.145,-2.0,0.0,1.0,2.0,3.0,1.0,-3.0,-1.0
0.15,-3.0,-1.0,-3.0,-7.0,-6.0,-3.0,1.0,1.0
0.155,-1.0,0.0,-1.0,2.0,-3.0,1.0,1.0,-1.0,-0.17132568359375,0.0194091796875,-0.43310546875,-0.884765625,0.15380859375,0.2978515625,0.91796875,29.9375,-27.3125,8.75
0.16,0.0,0.0,-3.0,-2.0,-14.0,-1.0,-3.0,1.0
0.165,0.0,-1.0,-3.0,-1.0,-8.0,-3.0,-1.0,-2.0,-0.17633056640625,0.0223388671875,-0.43310546875,-0.88372802734375,0.169921875,0.2578125,0.9248046875,20.9375,-28.5,4.875
0.17,0.0,0.0,1.0,-1.0,2.0,-3.0,-2.0,-3.0,-0.180908203125,0.02508544921875,-0.43292236328125,-0.8828125,0.1875,0.240234375,0.9111328125,20.5625,-26.25,3.0625
0.175,-2.0,-2.0,0.0,-1.0,-4.0,-1.0,0.0,1.0
0.18,-1.0,-4.0,-3.0,0.0,1.0,0.0,-6.0,-1.0,-0.1866455078125,0.02679443359375,-0.432861328125,-0.881591796875,0.20703125,0.24072265625,0.9052734375,29.75,-22.9375,2.625
0.185,-1.0,-5.0,-3.0,-4.0,-3.0,-2.0,-1.0,-11.0
0.19
0.195,-0.19354248046875,0.0272216796875,-0.4329833984375,-0.8800048828125,0.21826171875,0.267578125,0.90234375,38.25,-19.0,3.0
0.2,0.0,0.0,-1.0,-4.0,0.0,-8.0,-1.0,0.0,-0.200439453125,0.0269775390625,-0.4329833984375,-0.87847900390625,0.2216796875,0.30810546875,0.90087890625,37.9375,-15.8125,2.4375
0.205,0.0,0.0,1.0,4.0,15.0,2.0,1.0,-1.0
0.21,1.0,1.0,0.0,-1.0,-5.0,1.0,3.0,3.0,-0.20947265625,0.02716064453125,-0.43109130859375,-0.8773193359375,0.2158203125,0.36962890625,0.89404296875,15.25,-13.5625,-5.125
0.215,-3.0,-3.0,-3.0,-3.0,-9.0,0.0,0.0,-3.0
0.22,-1.0,-2.0,-1.0,0.0,-2.0,-1.0,-1.0,-1.0
0.225,2.0,1.0,0.0,1.0,1.0,-2.0,0.0,0.0,-0.21112060546875,0.028564453125,-0.4296875,-0.8775634765625,0.2275390625,0.36181640625,0.8994140625,3.0625,-12.9375,-6.0625
0.23
0.235,0.0,-1.0,-2.0,-1.0,1.0,-1.0,-1.0,1.0,-0.21136474609375,0.03021240234375,-0.428466796875,-0.87799072265625,0.234375,0.333984375,0.8955078125,-3.375,-9.9375,-5.375
0.24
0.245,-1.0,-3.0,-2.0,-5.0,-7.0,-2.0,1.0,-2.0,-0.2105712890625,0.03173828125,-0.42657470703125,-0.87908935546875,0.21630859375,0.33935546875,0.88525390625,-4.0,-3.1875,-4.625
0.25,2.0,2.0,0.0,1.0,9.0,8.0,3.0,0.0,-0.21038818359375,0.03204345703125,-0.4259033203125,-0.87945556640625,0.2119140625,0.349609375,0.89501953125,-3.0625,-3.3125,-3.3125
0.255,-1.0,0.0,-2.0,0.0,-1.0,-5.0,-1.0,-1.0,-0.21002197265625,0.0325927734375,-0.425537109375,-0.87969970703125,0.2294921875,0.35693359375,0.90234375,-4.75,-2.5625,-1.3125
0.26,-0.20892333984375,0.03350830078125,-0.42547607421875,-0.87994384765625,0.24072265625,0.3359375,0.9052734375,-7.8125,-1.75,0.4375
0.265,0.0,-1.0,-3.0,-1.0,-2.0,0.0,-2.0,0.0
0.27
0.275,-2.0,-3.0,-2.0,-1.0,-4.0,-2.0,-2.0,3.0
0.28,-0.2078857421875,0.03448486328125,-0.42559814453125,-0.88006591796875,0.248046875,0.3369140625,0.90185546875,-8.125,-1.375,1.3125
0.285,-3.0,-3.0,-1.0,-1.0,0.0,7.0,0.0,-2.0,-0.20709228515625,0.0352783203125,-0.42584228515625,-0.880126953125,0.2470703125,0.33203125,0.9013671875,-6.375,-1.125,1.875
0.29,-2.0,-1.0,-2.0,-5.0,-4.0,0.0,0.0,-3.0,-0.2060546875,0.03668212890625,-0.42584228515625,-0.88031005859375,0.2529296875,0.33056640625,0.9072265625,-3.625,-1.875,-0.1875
0.295
0.3,2.0,-1.0,-3.0,-4.0,-3.0,-3.0,-2.0,-2.0
0.305,-2.0,-3.0,-2.0,2.0,-2.0,-6.0,-2.0,-1.0,-0.20587158203125,0.03753662109375,-0.4256591796875,-0.88043212890625,0.25927734375,0.32080078125,0.8955078125,-3.0,-2.5625,-0.875
0.31,-1.0,-1.0,1.0,-1.0,6.0,-2.0,-3.0,0.0
0.315,-2.0,-2.0,-1.0,0.0,-4.0,-3.0,0.0,1.0,-0.20587158203125,0.03839111328125,-0.4254150390625,-0.8804931640625,0.26513671875,0.328125,0.908203125,-2.3125,-3.0625,-0.9375
0.32,-2.0,-1.0,-1.0,0.0,-1.0,2.0,-1.0,3.0,-0.2060546875,0.0391845703125,-0.42523193359375,-0.8804931640625,0.26416015625,0.33056640625,0.90087890625,-1.5,-2.9375,-0.5625
0.325,-1.0,1.0,0.0,-1.0,4.0,0.0,1.0,5.0,-0.2061767578125,0.03997802734375,-0.42510986328125,-0.8804931640625,0.2724609375,0.34423828125,0.9169921875,-2.125,-3.125,0.125
0.33,-7.0,0.0,0.0,0.0,-6.0,-1.0,1.0,-7.0
0.335,-0.20611572265625,0.04071044921875,-0.4251708984375,-0.88043212890625,0.27734375,0.34716796875,0.91748046875,-3.0625,-1.625,0.6875
0.34,-2.0,1.0,1.0,2.0,0.0,-3.0,0.0,3.0
0.345,-2.0,-3.0,-2.0,-4.0,-3.0,-4.0,-3.0,4.0
0.35,0.0,-1.0,-1.0,-1.0,1.0,0.0,-1.0,-6.0,-0.20550537109375,0.04156494140625,-0.42535400390625,-0.88043212890625,0.29541015625,0.337890625,0.9267578125,-5.625,-0.0625,1.0625
0.355
0.36,2.0,-3.0,-4.0,-1.0,-2.0,-1.0,1.0,-1.0,-0.20452880859375,0.0428466796875,-0.4256591796875,-0.8804931640625,0.30712890625,0.33056640625,0.93115234375,-8.0625,-0.125,2.0
0.365,1.0,0.0,-1.0,-2.0,-2.0,1.0,-5.0,-14.0
0.37,-1.0,0.0,1.0,2.0,-3.0,-3.0,-2.0,1.0,-0.2042236328125,0.0440673828125,-0.425537109375,-0.88055419921875,0.31103515625,0.30859375,0.935546875,-3.1875,-2.0625,-0.625
0.375
0.38,-10.0,-1.0,-4.0,-2.0,1.0,0.0,-3.0,-34.0
0.385,3.0,-1.0,-2.0,0.0,1.0,1.0,1.0,-2.0,-0.20465087890625,0.044921875,-0.42535400390625,-0.8804931640625,0.3232421875,0.3203125,0.93701171875,0.5625,-1.6875,-1.8125
0.39
0.395,-2.0,-2.0,-3.0,-1.0,0.0,0.0,-1.0,-3.0,-0.20458984375,0.045654296875,-0.42529296875,-0.8804931640625,0.3203125,0.3583984375,0.92919921875,-4.125,0.25,-0.1875
0.4,0.0,-1.0,-1.0,-1.0,0.0,-1.0,-3.0,0.0,-0.2034912109375,0.04705810546875,-0.42529296875,-0.88067626953125,0.32275390625,0.33935546875,0.94091796875,-9.875,-0.625,0.5
0.405,2.0,8.0,-2.0,-6.0,-1.0,-4.0,-3.0,-2.0
0.41,28.0,0.0,1.0,1.0,1.0,0.0,0.0,3.0,-0.202392578125,0.04815673828125,-0.42510986328125,-0.88092041015625,0.32080078125,0.32763671875,0.94189453125,-8.6875,0.75,-1.375
0.415,-11.0,-29.0,-4.0,-1.0,-3.0,-9.0,9.0,22.0
0.42,4.0,4.0,-3.0,0.0,-1.0,5.0,-7.0,-3.0,-0.201171875,0.048583984375,-0.4251708984375,-0.88116455078125,0.29052734375,0.353515625,0.91064453125,-10.3125,2.9375,0.625
0.425,-9.0,-6.0,-4.0,-2.0,-1.0,0.0,-1.0,5.0
0.43,-15.0,-3.0,-2.0,-2.0,-2.0,6.0,1.0,-16.0,-0.1978759765625,0.05023193359375,-0.42596435546875,-0.8814697265625,0.28857421875,0.37841796875,0.95361328125,-24.75,2.0,6.5625
0.435,-9.0,-1.0,-1.0,-2.0,-1.0,0.0,-1.0,2.0,-0.19281005859375,0.05267333984375,-0.42620849609375,-0.88232421875,0.318359375,0.333984375,0.98291015625,-33.875,3.5,2.625
0.44,1.0,6.0,-4.0,-6.0,-4.0,-10.0,-4.0,8.0
0.445,-70.0,-49.0,-5.0,2.0,0.0,-5.0,24.0,-18.0,-0.18701171875,0.054931640625,-0.42559814453125,-0.88372802734375,0.30908203125,0.29638671875,0.95068359375,-36.8125,5.3125,-2.75
0.45,6.0,-25.0,4.0,1.0,1.0,4.0,-4.0,17.0
0.455,7.0,16.0,-5.0,-3.0,7.0,2.0,-8.0,-1.0,-0.18048095703125,0.0570068359375,-0.42547607421875,-0.885009765625,0.27734375,0.2958984375,0.93701171875,-41.0,7.0625,0.4375
0.46,3.0,7.0,0.0,1.0,0.0,7.0,0.0,-1.0
0.465,55.0,42.0,5.0,2.0,-4.0,-6.0,6.0,30.0,-0.1719970703125,0.059814453125,-0.42669677734375,-0.88592529296875,0.2763671875,0.2900390625,0.95947265625,-52.5,9.0625,9.625
0.47,-97.0,-44.0,1.0,3.0,-2.0,-13.0,-21.0,-21.0
0.475,71.0,37.0,0.0,-3.0,-13.0,-19.0,-5.0,41.0,-0.16400146484375,0.06256103515625,-0.427490234375,-0.8868408203125,0.283203125,0.2626953125,0.923828125,-49.9375,9.0,7.375
0.48,-0.156494140625,0.06414794921875,-0.4273681640625,-0.88818359375,0.26904296875,0.19580078125,0.91943359375,-41.75,12.375,-0.75
0.485,26.0,31.0,10.0,9.0,7.0,21.0,37.0,29.0,-0.14886474609375,0.06378173828125,-0.42803955078125,-0.88916015625,0.19140625,0.2197265625,0.86572265625,-40.375,19.8125,4.375
0.49,28.0,38.0,6.0,7.0,16.0,36.0,18.0,2.0,-0.14141845703125,0.06219482421875,-0.4300537109375,-0.8895263671875,0.1416015625,0.28125,0.87646484375,-40.4375,23.125,13.5
0.495,-36.0,-64.0,-5.0,-2.0,4.0,7.0,12.0,-12.0
0.5,38.0,17.0,4.0,2.0,0.0,8.0,1.0,31.0,-0.13330078125,0.05902099609375,-0.4327392578125,-0.88970947265625,0.1103515625,0.267578125,0.83984375,-39.8125,33.125,16.0625
0.505,-20.0,3.0,-8.0,-8.0,1.0,14.0,-10.0,-42.0
0.51,15.0,12.0,2.0,7.0,4.0,4.0,-2.0,2.0,-0.11480712890625,0.052001953125,-0.4368896484375,-0.89068603515625,0.10693359375,0.21875,0.873046875,-44.9375,33.125,8.0
0.515,10.0,4.0,1.0,-2.0,2.0,-8.0,-3.0,12.0
0.52,20.0,13.0,-9.0,-13.0,12.0,6.0,-3.0,-8.0,-0.10833740234375,0.04925537109375,-0.4361572265625,-0.89202880859375,0.140625,0.076171875,0.931640625,-22.4375,27.6875,-7.4375
0.525,-0.104736328125,0.04541015625,-0.43475341796875,-0.893310546875,0.16259765625,0.01123046875,0.9423828125,-1.0625,27.9375,-13.3125
0.53,11.0,11.0,-1.0,-1.0,-27.0,-23.0,-12.0,-3.0
0.535,8.0,5.0,7.0,20.0,66.0,-4.0,3.0,9.0,-0.1009521484375,0.03900146484375,-0.4327392578125,-0.89501953125,0.12646484375,-0.005859375,0.9453125,5.125,39.4375,-18.9375
0.54,-7.0,-8.0,-1.0,-4.0,-20.0,-15.0,-12.0,-8.0,-0.1011962890625,0.02960205078125,-0.4315185546875,-0.89599609375,0.08056640625,0.1103515625,0.94091796875,26.3125,43.3125,-14.0
0.545,3.0,0.0,-1.0,-3.0,-28.0,-14.0,-5.0,-1.0
0.55,7.0,3.0,1.0,-16.0,-43.0,-6.0,2.0,6.0,-0.1038818359375,0.01861572265625,-0.4296875,-0.8968505859375,0.05615234375,0.103515625,0.97412109375,44.5,44.375,-17.875
0.555,2.0,0.0,-2.0,7.0,-3.0,-5.0,4.0,1.0
0.56,0.0,-2.0,-2.0,1.0,-7.0,31.0,27.0,7.0,-0.109619140625,0.0068359375,-0.42767333984375,-0.89727783203125,-0.0166015625,0.185546875,0.9619140625,58.1875,36.9375,-17.75
0.565,7.0,10.0,7.0,16.0,98.0,33.0,10.0,3.0
0.57,-3.0,-3.0,-1.0,0.0,-3.0,12.0,-8.0,-4.0,-0.12548828125,-0.01116943359375,-0.4232177734375,-0.89727783203125,-0.04052734375,0.29541015625,0.9892578125,59.625,10.5625,-12.875
0.575
0.58,3.0,3.0,-5.0,-1.0,4.0,-6.0,-8.0,2.0,-0.13360595703125,-0.01544189453125,-0.42333984375,-0.89599609375,-0.00244140625,0.36279296875,0.99169921875,45.75,-3.875,3.5
0.585,-1.0,-3.0,-5.0,-20.0,-33.0,-1.0,-13.0,-5.0,-0.1402587890625,-0.01654052734375,-0.42620849609375,-0.89361572265625,0.0810546875,0.4384765625,0.994140625,27.5,-8.9375,21.375
0.59,1.0,-3.0,-4.0,-4.0,-18.0,9.0,6.0,3.0
0.595,-6.0,-3.0,-2.0,-2.0,-8.0,-16.0,-8.0,-6.0,-0.144287109375,-0.0147705078125,-0.43115234375,-0.89056396484375,0.22314453125,0.4658203125,1.0224609375,6.0,-6.75,33.625
0.6,3.0,2.0,-1.0,-5.0,-9.0,-21.0,-17.0,-5.0
0.605,-1.0,-4.0,0.0,0.0,-19.0,-3.0,-14.0,-6.0,-0.145751953125,-0.01141357421875,-0.43804931640625,-0.88702392578125,0.32763671875,0.37890625,0.9814453125,-5.75,-0.25,43.375
0.61
0.615,4.0,2.0,-7.0,-61.0,-77.0,-5.0,-5.0,-2.0,-0.14324951171875,-0.00958251953125,-0.44342041015625,-0.88482666015625,0.31982421875,0.21044921875,0.97021484375,-12.1875,15.875,29.8125
0.62,10.0,5.0,0.0,14.0,80.0,39.0,19.0,13.0,-0.13653564453125,-0.01104736328125,-0.44659423828125,-0.88421630859375,0.18603515625,0.10302734375,0.962890625,-19.9375,32.5,13.4375
0.625,-2.0,-1.0,2.0,-2.0,-8.0,-5.0,-8.0,-1.0
0.63,5.0,-1.0,2.0,33.0,88.0,57.0,27.0,3.0,-0.12890625,-0.01470947265625,-0.449951171875,-0.88360595703125,0.0302734375,0.1220703125,0.9697265625,-20.9375,36.75,15.3125
0.635,-0.12835693359375,-0.02020263671875,-0.45477294921875,-0.88116455078125,0.0078125,0.26611328125,0.94140625,11.0,28.125,28.0625
0.64,-5.0,-2.0,-2.0,-16.0,-51.0,-15.0,5.0,-3.0
0.645,-7.0,-8.0,-5.0,1.0,-76.0,-62.0,-43.0,-13.0,-0.12640380859375,-0.02423095703125,-0.45855712890625,-0.87939453125,0.14501953125,0.1826171875,0.93115234375,4.8125,33.5625,18.875
0.65,-11.0,-16.0,-26.0,-45.0,12.0,23.0,10.0,-10.0
0.655,-13.0,-7.0,-10.0,-22.0,44.0,40.0,13.0,-10.0,-0.12567138671875,-0.0301513671875,-0.4627685546875,-0.8770751953125,0.13818359375,0.38330078125,0.91455078125,3.0,40.4375,22.5
0.66,1.0,-2.0,4.0,18.0,-53.0,-64.0,-20.0,-2.0,-0.12371826171875,-0.0343017578125,-0.46759033203125,-0.8746337890625,0.0751953125,0.56298828125,0.84814453125,-21.5,31.3125,28.0625
0.665,-8.0,-7.0,-8.0,-19.0,-1.0,-19.0,-30.0,-14.0
0.67,-3.0,2.0,-1.0,14.0,-75.0,-26.0,0.0,-6.0,-0.111328125,-0.03118896484375,-0.46673583984375,-0.87689208984375,-0.1083984375,0.08544921875,0.9228515625,-63.375,5.875,-8.375
0.675
0.68,2.0,3.0,11.0,-20.0,-94.0,24.0,-1.0,4.0
0.685,-5.0,-1.0,3.0,-28.0,-22.0,6.0,-11.0,-6.0,-0.102294921875,-0.02783203125,-0.46240234375,-0.88037109375,-0.0341796875,-0.11767578125,1.05029296875,-32.625,-1.6875,-30.5
0.69,-0.09918212890625,-0.0283203125,-0.4569091796875,-0.883544921875,0.05322265625,0.0556640625,1.0615234375,-4.0625,7.4375,-37.375
0.695,9.0,12.0,36.0,94.0,127.0,49.0,30.0,14.0
0.7,-2.0,-6.0,-12.0,-36.0,127.0,35.0,25.0,5.0,-0.0985107421875,-0.0306396484375,-0.45233154296875,-0.88592529296875,-0.06640625,0.125,1.09716796875,8.9375,3.0,-29.625
0.705,4.0,5.0,7.0,1.0,94.0,42.0,39.0,13.0,-0.09967041015625,-0.03271484375,-0.45001220703125,-0.88690185546875,-0.0361328125,0.052734375,1.07470703125,23.125,1.25,-14.625
0.71,-15.0,-10.0,-9.0,-26.0,-70.0,1.0,-5.0,-14.0
0.715,-0.10247802734375,-0.03619384765625,-0.4471435546875,-0.88787841796875,0.01708984375,0.1875,0.98583984375,24.8125,7.75,-18.5
0.72,4.0,3.0,-3.0,10.0,27.0,-60.0,15.0,9.0
0.725,-13.0,-9.0,0.0,4.0,84.0,-13.0,-15.0,-9.0,-0.10235595703125,-0.0399169921875,-0.443359375,-0.8896484375,-0.044921875,0.24609375,0.9794921875,6.6875,12.3125,-25.0
0.73
0.735,0.0,-2.0,-8.0,-10.0,3.0,16.0,-28.0,-16.0,-0.10028076171875,-0.041748046875,-0.43994140625,-0.8914794921875,-0.0224609375,0.16162109375,0.958984375,-2.75,9.75,-23.3125
0.74,-9.0,-9.0,-13.0,-23.0,22.0,33.0,-2.0,-5.0
0.745,-7.0,-3.0,3.0,7.0,-33.0,11.0,-16.0,-8.0,-0.0994873046875,-0.04510498046875,-0.4359130859375,-0.89337158203125,-0.0146484375,0.22607421875,0.9013671875,2.5625,15.0,-27.0
0.75,33.0,5.0,-4.0,-26.0,36.0,53.0,1.0,15.0,-0.09442138671875,-0.0478515625,-0.4315185546875,-0.89593505859375,-0.017578125,0.2373046875,0.9111328125,-22.4375,22.5625,-31.5
0.755,-9.0,-6.0,-1.0,-10.0,65.0,48.0,2.0,-3.0
0.76,-10.0,-1.0,-1.0,11.0,-22.0,-3.0,5.0,0.0,-0.0814208984375,-0.04730224609375,-0.42742919921875,-0.899169921875,-0.01171875,0.10693359375,0.99755859375,-63.0625,26.4375,-32.6875
0.765,11.0,7.0,9.0,23.0,-4.0,34.0,37.0,-1.0,-0.0657958984375,-0.04541015625,-0.42437744140625,-0.9019775390625,-0.013671875,0.07421875,0.9970703125,-79.75,27.0625,-25.9375
0.77
0.775,-13.0,-10.0,-1.0,-3.0,-40.0,-37.0,-32.0,-10.0,-0.05072021484375,-0.0435791015625,-0.42303466796875,-0.9036865234375,-0.07568359375,0.01171875,0.9892578125,-74.4375,23.5,-13.75
0.78,20.0,11.0,8.0,7.0,-30.0,-13.0,7.0,29.0
0.785,-13.0,-3.0,2.0,20.0,-49.0,-5.0,-14.0,-9.0,-0.03955078125,-0.04266357421875,-0.42120361328125,-0.9051513671875,-0.03466796875,-0.01953125,1.0078125,-51.25,22.25,-15.0
0.79,41.0,14.0,-1.0,-6.0,8.0,-3.0,-2.0,-16.0,-0.0333251953125,-0.0435791015625,-0.41851806640625,-0.9066162109375,0.03125,0.1064453125,0.96875,-30.625,24.1875,-19.875
0.795,-0.02471923828125,-0.04345703125,-0.41522216796875,-0.90838623046875,-0.0625,0.1298828125,0.9775390625,-47.9375,18.75,-23.75
0.8,-7.0,5.0,-7.0,-17.0,57.0,3.0,-44.0,-22.0
0.805,-38.0,-17.0,2.0,-7.0,14.0,4.0,21.0,2.0,-0.0123291015625,-0.04083251953125,-0.411865234375,-0.9102783203125,-0.1044921875,0.04150390625,1.0517578125,-69.0625,11.9375,-24.5
0.81,28.0,7.0,-5.0,1.0,-8.0,-6.0,7.0,16.0
0.815,-18.0,-5.0,-8.0,-45.0,36.0,-20.0,-36.0,-13.0
0.82,12.0,5.0,3.0,15.0,12.0,2.0,19.0,28.0,-0.0006103515625,-0.0361328125,-0.40972900390625,-0.91156005859375,-0.0888671875,-0.0107421875,1.08154296875,-68.875,1.8125,-16.375
0.825,0.0101318359375,-0.03131103515625,-0.40875244140625,-0.912109375,-0.04345703125,-0.0224609375,1.04638671875,-65.0,1.5625,-8.5
0.83,11.0,-1.0,-2.0,-10.0,13.0,17.0,6.0,29.0
0.835,-2.0,10.0,3.0,15.0,-2.0,-10.0,-16.0,-35.0,0.01702880859375,-0.02685546875,-0.408935546875,-0.91204833984375,-0.07861328125,0.171875,0.96142578125,-59.5,-8.5,-1.125
0.84,-45.0,-6.0,1.0,2.0,-9.0,10.0,10.0,14.0
0.845,6.0,-11.0,-2.0,-4.0,-8.0,-7.0,-15.0,-66.0,0.02294921875,-0.0201416015625,-0.40985107421875,-0.91168212890625,-0.19091796875,0.10888671875,1.0478515625,-56.4375,-30.75,3.0625
0.85
0.855,11.0,-5.0,-5.0,-1.0,-8.0,-3.0,-17.0,-22.0,0.03021240234375,-0.0086669921875,-0.4105224609375,-0.911376953125,-0.14208984375,-0.0078125,1.044921875,-67.8125,-49.9375,1.625
0.86,-17.0,-12.0,-3.0,4.0,-20.0,-15.0,-12.0,-14.0
0.865,-21.0,-18.0,-6.0,-3.0,-8.0,-7.0,-25.0,-20.0,0.04217529296875,0.02325439453125,-0.41412353515625,-0.90899658203125,0.05859375,-0.23681640625,1.1005859375,-53.125,-70.125,12.25
0.87,-9.0,-6.0,6.0,3.0,5.0,4.0,18.0,7.0
0.875,25.0,14.0,1.0,-1.0,-6.0,-3.0,4.0,22.0,0.04022216796875,0.03668212890625,-0.4150390625,-0.908203125,0.09619140625,-0.22021484375,1.05712890625,-14.125,-70.6875,3.125
0.88,29.0,11.0,-6.0,-1.0,-7.0,-23.0,-43.0,-8.0
0.885,-63.0,-24.0,1.0,0.0,-11.0,-8.0,1.0,-19.0,0.0330810546875,0.0478515625,-0.41448974609375,-0.90826416015625,0.12646484375,-0.10205078125,1.0810546875,9.75,-70.6875,-6.6875
0.89
0.895,20.0,5.0,-5.0,-1.0,1.0,13.0,-5.0,-5.0,0.02484130859375,0.0574951171875,-0.41363525390625,-0.9083251953125,0.208984375,0.10986328125,0.9833984375,5.6875,-60.8125,-6.9375
0.9,21.0,13.0,5.0,-3.0,-24.0,-4.0,31.0,-8.0,0.023681640625,0.06219482421875,-0.4102783203125,-0.9095458984375,0.34228515625,0.02490234375,0.7529296875,-12.625,-7.3125,-18.875
0.905,-69.0,-26.0,2.0,5.0,5.0,7.0,19.0,-4.0
0.91,19.0,28.0,-2.0,1.0,-5.0,-21.0,-13.0,7.0,0.0201416015625,0.0595703125,-0.4071044921875,-0.9112548828125,0.0908203125,0.0439453125,0.75341796875,16.125,7.8125,-20.875
0.915
0.92,0.0,-5.0,-9.0,-5.0,-6.0,0.0,10.0,-76.0,0.015380859375,0.06195068359375,-0.4027099609375,-0.91314697265625,0.10009765625,0.212890625,0.80322265625,-32.9375,-24.0625,-20.125
0.925,59.0,88.0,4.0,3.0,-6.0,-15.0,1.0,66.0
0.93,102.0,52.0,-2.0,-1.0,-2.0,13.0,0.0,-3.0,0.02398681640625,0.07037353515625,-0.396484375,-0.9150390625,0.14306640625,-0.20263671875,0.9794921875,-59.25,-20.8125,-35.4375
0.935,0.02447509765625,0.073974609375,-0.39013671875,-0.91748046875,0.18212890625,-0.484375,0.99951171875,13.375,-11.625,-41.875
0.94,108.0,40.0,10.0,1.0,-3.0,3.0,14.0,19.0
0.945,3.0,-11.0,-9.0,-16.0,-29.0,-38.0,-8.0,-12.0,0.01220703125,0.06884765625,-0.38604736328125,-0.91986083984375,0.15966796875,-0.2236328125,0.931640625,85.125,4.6875,-32.25
0.95,-53.0,-24.0,-6.0,-3.0,2.0,3.0,-25.0,-27.0
0.955,53.0,32.0,4.0,-8.0,-20.0,-24.0,6.0,106.0
0.96,9.0,60.0,6.0,3.0,1.0,-16.0,-75.0,-113.0,-0.00433349609375,0.0584716796875,-0.3826904296875,-0.92205810546875,0.1044921875,0.125,0.7734375,106.4375,19.3125,-28.125
0.965
0.97,-24.0,-24.0,-4.0,1.0,-9.0,-16.0,15.0,-24.0,-0.0159912109375,0.048095703125,-0.37744140625,-0.9246826171875,0.0283203125,0.26171875,0.8125,63.75,26.375,-35.6875
0.975,19.0,-7.0,-5.0,-4.0,3.0,-5.0,3.0,10.0
0.98,-0.01800537109375,0.04241943359375,-0.3717041015625,-0.92724609375,0.04052734375,0.25439453125,0.90478515625,3.1875,22.875,-35.3125
0.985
0.99,17.0,13.0,-1.0,0.0,-3.0,-30.0,-6.0,-42.0
0.995,-101.0,-74.0,2.0,9.0,9.0,28.0,38.0,-23.0,-0.01434326171875,0.03936767578125,-0.36614990234375,-0.92962646484375,0.1455078125,-0.11376953125,1.02392578125,-6.6875,28.125,-34.75
1.0,17.0,1.0,1.0,10.0,23.0,24.0,17.0,32.0
1.005,82.0,26.0,-4.0,-3.0,-3.0,-8.0,2.0,25.0,-0.0157470703125,0.031982421875,-0.361572265625,-0.93170166015625,0.06494140625,-0.2060546875,1.02490234375,36.75,36.0,-30.8125
1.01,1.0,-6.0,-5.0,-6.0,1.0,19.0,62.0,30.0
1.015,51.0,17.0,-7.0,-4.0,6.0,16.0,2.0,10.0,-0.02496337890625,0.021484375,-0.358642578125,-0.93292236328125,-0.0185546875,0.00634765625,1.03369140625,72.1875,31.375,-21.0
1.02,-15.0,-12.0,-2.0,0.0,2.0,25.0,-1.0,50.0,-0.034912109375,0.01300048828125,-0.35626220703125,-0.93365478515625,0.05078125,0.17919921875,1.03369140625,61.4375,24.5625,-16.0
1.025,-14.0,-6.0,-4.0,-4.0,-5.0,-16.0,-19.0,-41.0,-0.0389404296875,0.00732421875,-0.35443115234375,-0.934326171875,0.025390625,0.14111328125,1.0712890625,28.125,20.5,-12.5
1.03,17.0,-3.0,-2.0,0.0,1.0,9.0,-11.0,16.0
1.035,50.0,11.0,6.0,13.0,16.0,3.0,3.0,-8.0
1.04,-14.0,-8.0,2.0,1.0,2.0,-9.0,0.0,7.0,-0.04058837890625,0.00390625,-0.3531494140625,-0.93475341796875,0.0810546875,0.04833984375,1.08837890625,17.6875,17.375,-8.875
1.045,-15.0,-1.0,1.0,7.0,2.0,4.0,-8.0,-9.0
1.05,-0.0433349609375,-0.00042724609375,-0.35198974609375,-0.93505859375,0.04345703125,0.0576171875,1.0712890625,25.375,18.375,-7.8125
1.055,-7.0,-13.0,-10.0,-23.0,-44.0,-56.0,-28.0,34.0
1.06,-0.04736328125,-0.005126953125,-0.35040283203125,-0.9354248046875,0.0234375,0.0751953125,1.068359375,32.625,16.4375,-10.6875
1.065,-25.0,-14.0,-7.0,-7.0,-48.0,-27.0,-17.0,-8.0
1.07,-12.0,-13.0,7.0,25.0,56.0,23.0,-2.0,-11.0
1.075,-0.05047607421875,-0.01141357421875,-0.34808349609375,-0.93609619140625,-0.03662109375,0.0380859375,1.06298828125,34.3125,23.1875,-15.125
1.08,-5.0,-2.0,8.0,-2.0,30.0,48.0,18.0,14.0
1.085,-11.0,2.0,-7.0,-19.0,-11.0,-4.0,-11.0,-15.0
1.09,-1.0,-4.0,0.0,24.0,65.0,32.0,0.0,-9.0,-0.05633544921875,-0.01690673828125,-0.34698486328125,-0.93609619140625,-0.04345703125,0.14453125,1.0869140625,41.0,13.75,-6.75
1.095,-0.06085205078125,-0.02020263671875,-0.3468017578125,-0.935791015625,0.05859375,0.169921875,1.04052734375,28.5,12.4375,-1.4375
1.1,-9.0,-3.0,7.0,22.0,4.0,-19.0,-3.0,5.0
1.105,-10.0,-8.0,-1.0,18.0,65.0,10.0,-34.0,-15.0
1.11,-0.06201171875,-0.02496337890625,-0.347412109375,-0.93536376953125,-0.068359375,0.06640625,0.9873046875,20.0625,19.0,3.0625
1.115,-16.0,-11.0,-9.0,-13.0,13.0,7.0,6.0,11.0
1.12,6.0,3.0,0.0,-5.0,-45.0,-1.0,7.0,7.0
1.125,-1.0,-1.0,-5.0,-19.0,-29.0,-6.0,1.0,2.0,-0.06719970703125,-0.0291748046875,-0.3497314453125,-0.93402099609375,-0.0517578125,0.2080078125,0.94580078125,31.75,9.9375,14.8125
1.13,-0.07171630859375,-0.03094482421875,-0.353515625,-0.93218994140625,-0.0126953125,0.29296875,0.953125,17.5625,1.8125,23.75
1.135,7.0,5.0,4.0,15.0,26.0,3.0,5.0,2.0
1.14,-10.0,-3.0,-2.0,-7.0,-18.0,-21.0,-12.0,-34.0
1.145,-0.07427978515625,-0.03021240234375,-0.35748291015625,-0.93048095703125,0.01025390625,0.2568359375,1.0205078125,6.0,-6.25,25.4375
1.15,-2.0,-1.0,-6.0,-5.0,-10.0,-6.0,2.0,-4.0
1.155,0.0,-6.0,-1.0,-10.0,-12.0,16.0,13.0,4.0,-0.07562255859375,-0.0281982421875,-0.36041259765625,-0.9293212890625,0.08447265625,0.173828125,1.078125,2.875,-6.1875,18.125
1.16,5.0,2.0,3.0,11.0,13.0,6.0,19.0,14.0,-0.07672119140625,-0.02935791015625,-0.3631591796875,-0.92816162109375,0.0029296875,0.072265625,1.04638671875,15.5,5.1875,16.5
1.165,-7.0,-5.0,-3.0,-28.0,-91.0,-23.0,0.0,-3.0
1.17,-14.0,-4.0,8.0,38.0,85.0,56.0,2.0,-8.0
1.175,-0.08294677734375,-0.03265380859375,-0.36865234375,-0.92535400390625,-0.005859375,0.240234375,1.0029296875,36.1875,7.125,34.8125
1.18,-6.0,-2.0,0.0,10.0,-18.0,-20.0,-16.0,-10.0
1.185,0.0,2.0,-2.0,-3.0,22.0,12.0,2.0,4.0,-0.08837890625,-0.035888671875,-0.37738037109375,-0.92120361328125,0.01953125,0.458984375,0.9130859375,16.3125,11.6875,54.125
1.19,8.0,6.0,-1.0,6.0,20.0,-35.0,-1.0,8.0,-0.08819580078125,-0.03594970703125,-0.3876953125,-0.91693115234375,0.10791015625,0.55029296875,0.93408203125,-26.75,13.6875,62.375
1.195,-4.0,-2.0,1.0,-8.0,-52.0,-36.0,-13.0,-2.0
1.2,-12.0,-5.0,16.0,40.0,-54.0,-44.0,5.0,-7.0
1.205
1.21,-1.0,7.0,16.0,-17.0,-4.0,70.0,27.0,8.0,-0.0750732421875,-0.0347900390625,-0.395751953125,-0.9146728515625,0.20703125,0.31640625,0.9912109375,-82.4375,42.0625,42.75
1.215,13.0,2.0,-8.0,-38.0,-128.0,-49.0,-14.0,4.0
1.22,-0.05767822265625,-0.037109375,-0.400634765625,-0.9136962890625,0.0732421875,0.13525390625,0.8994140625,-87.625,60.3125,22.3125
1.225,2.0,-4.0,-21.0,-75.0,93.0,0.0,-13.0,1.0
1.23,-0.0374755859375,-0.03826904296875,-0.40362548828125,-0.91339111328125,-0.0634765625,-0.02197265625,1.06884765625,-94.5625,52.125,12.0625
1.235
1.24,-3.0,1.0,9.0,28.0,-80.0,3.0,11.0,-3.0
1.245,-0.018798828125,-0.0380859375,-0.40289306640625,-0.914306640625,-0.177734375,-0.27783203125,1.17041015625,-73.4375,33.6875,-8.125
1.25,0.0,-3.0,6.0,7.0,-128.0,-49.0,-3.0,-3.0
1.255
1.26,1.0,0.0,-1.0,-3.0,-56.0,21.0,1.0,-1.0,-0.01263427734375,-0.0396728515625,-0.40252685546875,-0.91448974609375,-0.04052734375,-0.400390625,1.21484375,4.25,24.9375,-2.1875
1.265,-0.0174560546875,-0.04742431640625,-0.40142822265625,-0.91455078125,-0.16748046875,-0.05419921875,1.08642578125,52.8125,23.375,-4.25
1.27,-5.0,-7.0,-11.0,-2.0,18.0,-95.0,-24.0,-5.0
1.275,-15.0,-15.0,-25.0,-53.0,-42.0,-2.0,-35.0,-16.0,-0.0289306640625,-0.0557861328125,-0.4007568359375,-0.9140625,-0.10302734375,0.21923828125,1.02099609375,71.1875,15.6875,-0.6875
1.28,7.0,2.0,-2.0,-22.0,-32.0,-3.0,20.0,8.0
1.285,3.0,5.0,2.0,18.0,42.0,-15.0,12.0,6.0
1.29,0.0,0.0,2.0,15.0,33.0,-10.0,-20.0,-7.0,-0.03692626953125,-0.06121826171875,-0.399658203125,-0.9139404296875,-0.095703125,0.27880859375,0.92138671875,42.8125,8.6875,-4.75
1.295,-0.0394287109375,-0.06427001953125,-0.3975830078125,-0.91448974609375,-0.14208984375,0.11962890625,0.93505859375,20.1875,5.5,-11.625
1.3,6.0,7.0,11.0,34.0,44.0,18.0,37.0,8.0
1.305,21.0,9.0,-1.0,-37.0,-58.0,8.0,-7.0,10.0
1.31,10.0,5.0,-1.0,4.0,81.0,60.0,41.0,13.0,-0.040283203125,-0.06610107421875,-0.394775390625,-0.91552734375,-0.10009765625,0.0361328125,0.9716796875,15.4375,5.6875,-16.5
1.315,-29.0,-13.0,3.0,-21.0,8.0,-54.0,-18.0,-15.0
1.32,5.0,5.0,-2.0,-2.0,-63.0,5.0,-1.0,-3.0,-0.04107666015625,-0.0677490234375,-0.3936767578125,-0.9158935546875,-0.08837890625,0.146484375,0.97998046875,7.0625,6.5,-6.75
1.325,-3.0,-7.0,-4.0,10.0,-83.0,-55.0,-44.0,-13.0,-0.04095458984375,-0.0697021484375,-0.39337158203125,-0.9158935546875,-0.1123046875,0.15771484375,0.88134765625,0.6875,8.625,-2.3125
1.33,0.0,3.0,-5.0,-17.0,81.0,-29.0,-10.0,-5.0
1.335,-22.0,-13.0,-10.0,-27.0,36.0,1.0,-23.0,-20.0
1.34,-0.0396728515625,-0.0704345703125,-0.3929443359375,-0.91607666015625,-0.10498046875,0.10498046875,0.9248046875,-3.8125,5.4375,-2.9375
1.345,2.0,-2.0,-6.0,-9.0,-7.0,-8.0,-8.0,-4.0
1.35,0.0,1.0,3.0,18.0,-21.0,-5.0,14.0,9.0,-0.03851318359375,-0.07049560546875,-0.39263916015625,-0.91619873046875,-0.119140625,0.1328125,0.939453125,-6.75,1.3125,-2.25
1.355,3.0,2.0,-3.0,6.0,-14.0,19.0,25.0,2.0
1.36,1.0,-3.0,-9.0,-6.0,-11.0,0.0,3.0,-1.0,-0.0372314453125,-0.07012939453125,-0.39208984375,-0.91656494140625,-0.083984375,0.08056640625,0.99267578125,-4.5,1.75,-4.0625
1.365,0.0,-3.0,-1.0,-9.0,20.0,16.0,1.0,3.0
1.37,-0.03759765625,-0.07061767578125,-0.3917236328125,-0.9166259765625,-0.08642578125,0.11474609375,0.96142578125,3.6875,2.3125,-2.0625
1.375,-6.0,-4.0,-5.0,8.0,88.0,65.0,-8.0,-7.0
1.38,6.0,1.0,-3.0,-8.0,34.0,24.0,-6.0,5.0
1.385,2.0,8.0,8.0,3.0,20.0,69.0,12.0,5.0,-0.03875732421875,-0.0716552734375,-0.39141845703125,-0.9166259765625,-0.09375,0.12646484375,0.98583984375,8.5625,3.3125,-1.6875
1.39,-0.04046630859375,-0.07305908203125,-0.3907470703125,-0.916748046875,-0.0927734375,0.20556640625,0.97802734375,7.0,3.6875,-4.0625
1.395,-8.0,-3.0,-5.0,-13.0,-34.0,-34.0,0.0,-10.0
1.4,1.0,-2.0,-7.0,-15.0,-36.0,-16.0,10.0,7.0
1.405,-2.0,-3.0,-3.0,-34.0,-24.0,-41.0,-7.0,1.0,-0.03912353515625,-0.07342529296875,-0.38995361328125,-0.9171142578125,-0.10888671875,0.109375,0.9853515625,-4.875,4.3125,-5.5
1.41,-2.0,-3.0,-8.0,-13.0,-28.0,-17.0,-4.0,-1.0
1.415,-2.0,-3.0,-3.0,12.0,33.0,-14.0,3.0,-4.0,-0.03924560546875,-0.0743408203125,-0.3895263671875,-0.917236328125,-0.11376953125,0.06640625,0.98291015625,7.0625,3.8125,-2.0625
1.42,-0.0418701171875,-0.07611083984375,-0.38946533203125,-0.9169921875,-0.10888671875,0.14599609375,0.96728515625,17.125,3.4375,0.75
1.425,-5.0,-4.0,-5.0,-8.0,-11.0,29.0,-5.0,-2.0
1.43,-7.0,-5.0,-3.0,-2.0,27.0,6.0,8.0,-8.0
1.435,-0.04339599609375,-0.07720947265625,-0.38946533203125,-0.91680908203125,-0.10302734375,0.19677734375,0.9609375,6.0,2.375,0.4375
1.44,-1.0,-4.0,0.0,0.0,-59.0,27.0,-14.0,5.0
1.445,2.0,6.0,5.0,8.0,19.0,-18.0,-12.0,-2.0,-0.04302978515625,-0.07769775390625,-0.38970947265625,-0.91668701171875,-0.11279296875,0.1640625,0.96142578125,-2.8125,3.125,0.875
1.45,0.0,-5.0,-4.0,-2.0,48.0,21.0,-6.0,-1.0,-0.04217529296875,-0.07769775390625,-0.389892578125,-0.9166259765625,-0.10498046875,0.13916015625,1.015625,-4.1875,2.375,0.6875
1.455,2.0,-2.0,-1.0,11.0,72.0,-5.0,5.0,0.0
1.46,-0.04150390625,-0.07781982421875,-0.39019775390625,-0.91656494140625,-0.09033203125,0.16650390625,0.99462890625,-5.4375,3.625,0.9375
1.465,-8.0,-9.0,-15.0,-6.0,-12.0,-51.0,-29.0,-17.0
1.47,-4.0,-3.0,2.0,2.0,-48.0,-11.0,-7.0,-2.0,-0.04046630859375,-0.07763671875,-0.39031982421875,-0.91656494140625,-0.11767578125,0.115234375,0.99365234375,-4.5,0.875,0.4375
1.475,-4.0,-5.0,-6.0,-24.0,-47.0,12.0,-1.0,-6.0,-0.0411376953125,-0.078125,-0.390625,-0.9163818359375,-0.1240234375,0.1064453125,1.00146484375,6.5,0.5,2.625
1.48
1.485,-5.0,-6.0,-1.0,23.0,66.0,-8.0,-7.0,-5.0
1.49,-0.04327392578125,-0.0789794921875,-0.39093017578125,-0.91607666015625,-0.10595703125,0.17626953125,0.99169921875,11.0,0.4375,2.5625
1.495,-2.0,-3.0,-2.0,-8.0,-15.0,-1.0,-6.0,1.0
1.5,0.0,0.0,-1.0,-15.0,-12.0,21.0,10.0,0.0
1.505,-0.0440673828125,-0.0794677734375,-0.3912353515625,-0.91583251953125,-0.1025390625,0.185546875,0.98681640625,2.0,1.375,1.9375
1.51,-3.0,1.0,-4.0,-21.0,-18.0,-35.0,13.0,3.0
1.515,-0.0430908203125,-0.07928466796875,-0.39154052734375,-0.915771484375,-0.109375,0.1240234375,0.98876953125,-4.4375,1.5625,1.625
1.52,3.0,4.0,4.0,0.0,89.0,38.0,12.0,1.0
1.525,2.0,0.0,3.0,0.0,14.0,52.0,7.0,3.0
1.53,-0.04315185546875,-0.07928466796875,-0.39215087890625,-0.91552734375,-0.11181640625,0.14697265625,0.99560546875,-0.3125,0.1875,3.8125
1.535,-5.0,-1.0,-1.0,17.0,8.0,-3.0,-5.0,-3.0
1.54,-2.0,-1.0,-5.0,-12.0,-15.0,-33.0,-5.0,-1.0
1.545,5.0,-2.0,2.0,19.0,38.0,16.0,10.0,13.0,-0.0433349609375,-0.0791015625,-0.392822265625,-0.91522216796875,-0.09228515625,0.16796875,0.9951171875,-1.5,0.4375,3.5
1.55,-0.042724609375,-0.07891845703125,-0.39324951171875,-0.91510009765625,-0.10498046875,0.16552734375,0.9892578125,-5.5,0.8125,2.125
1.555,-7.0,-3.0,-5.0,-4.0,-29.0,-23.0,-3.0,-6.0
1.56,3.0,-2.0,-5.0,-3.0,-20.0,18.0,14.0,6.0,-0.04168701171875,-0.07861328125,-0.39361572265625,-0.91497802734375,-0.11669921875,0.14208984375,0.99169921875,-6.625,0.625,1.875
1.565
1.57,3.0,4.0,4.0,-2.0,10.0,-14.0,-8.0,4.0
1.575,-5.0,-1.0,-3.0,-8.0,-8.0,-27.0,-9.0,-9.0,-0.04107666015625,-0.07843017578125,-0.39410400390625,-0.91485595703125,-0.11669921875,0.13232421875,1.01171875,-3.125,0.125,2.75
1.58,-0.04119873046875,-0.07818603515625,-0.394775390625,-0.91455078125,-0.10498046875,0.15087890625,1.00146484375,-1.125,-0.6875,3.9375
1.585,0.0,0.0,3.0,-3.0,-8.0,-15.0,-6.0,-4.0
1.59,4.0,0.0,1.0,14.0,-27.0,-3.0,4.0,3.0
1.595,-3.0,-6.0,1.0,0.0,-24.0,-3.0,7.0,5.0,-0.0413818359375,-0.07781982421875,-0.39532470703125,-0.91436767578125,-0.11767578125,0.1455078125,0.98681640625,-0.75,-2.6875,3.375
1.6,-4.0,-1.0,-9.0,-19.0,-22.0,-13.0,-9.0,-7.0
1.605,-0.04168701171875,-0.0771484375,-0.39581298828125,-0.9141845703125,-0.1103515625,0.13134765625,0.97802734375,0.3125,-4.0,3.4375
1.61,-5.0,-2.0,0.0,8.0,-3.0,-8.0,-6.0,12.0,-0.04248046875,-0.07659912109375,-0.39642333984375,-0.9139404296875,-0.11669921875,0.13623046875,0.95458984375,2.4375,-5.625,4.3125
1.615,-7.0,5.0,0.0,-1.0,-23.0,-2.0,-2.0,-18.0
1.62,-0.0438232421875,-0.07562255859375,-0.3968505859375,-0.91375732421875,-0.15576171875,0.11181640625,0.9775390625,6.625,-11.75,4.25
1.625,2.0,-4.0,0.0,1.0,-11.0,0.0,1.0,24.0
1.63,-5.0,-5.0,-2.0,0.0,-2.0,-3.0,-3.0,3.0,-0.046875,-0.072998046875,-0.397216796875,-0.91363525390625,-0.16162109375,0.12939453125,1.0166015625,10.9375,-24.75,4.8125
1.635
1.64,10.0,-10.0,0.0,5.0,-3.0,7.0,16.0,55.0
1.645,15.0,9.0,3.0,2.0,-7.0,-4.0,8.0,20.0,-0.050537109375,-0.068359375,-0.39697265625,-0.9139404296875,-0.10302734375,0.15087890625,1.02783203125,8.8125,-33.75,1.0
1.65,-0.05255126953125,-0.06207275390625,-0.39654541015625,-0.9144287109375,-0.068359375,0.1298828125,1.03271484375,-2.375,-37.5,-0.875
1.655,-20.0,-6.0,-4.0,-3.0,-1.0,-5.0,-5.0,-26.0
1.66,0.0,-1.0,-1.0,-2.0,-1.0,-5.0,-4.0,-12.0
1.665,-0.054443359375,-0.054931640625,-0.39605712890625,-0.9150390625,-0.072265625,0.08544921875,1.0361328125,-1.75,-42.875,-0.75
1.67,16.0,9.0,1.0,3.0,2.0,6.0,-8.0,-41.0
1.675,-9.0,-6.0,-3.0,-1.0,-4.0,6.0,-4.0,-20.0,-0.057861328125,-0.04754638671875,-0.394775390625,-0.915771484375,-0.0458984375,0.06103515625,1.033203125,7.625,-47.375,-4.5625
1.68,-1.0,-2.0,-3.0,-1.0,-2.0,-6.0,-5.0,-11.0
1.685,-0.06353759765625,-0.0411376953125,-0.39288330078125,-0.91650390625,0.001953125,0.1171875,1.01025390625,17.8125,-45.3125,-8.5
1.69
1.695,-8.0,-1.0,0.0,-2.0,1.0,5.0,-9.0,-10.0,-0.07049560546875,-0.036376953125,-0.39031982421875,-0.91729736328125,0.02587890625,0.189453125,0.982421875,23.75,-39.1875,-12.0
1.7,-5.0,0.0,-1.0,0.0,2.0,-11.0,-5.0,-29.0
1.705,-1.0,1.0,0.0,-3.0,1.0,20.0,3.0,-3.0,-0.0765380859375,-0.03271484375,-0.38787841796875,-0.91796875,0.04345703125,0.26416015625,0.9873046875,17.0625,-30.6875,-12.5
1.71,-6.0,-7.0,-3.0,-9.0,-11.0,-15.0,-11.0,-5.0,-0.081298828125,-0.03082275390625,-0.38671875,-0.91815185546875,0.01318359375,0.3466796875,0.876953125,7.5,-20.875,-4.625
1.715,-1.0,0.0,0.0,5.0,4.0,2.0,3.0,6.0
1.72,-5.0,-2.0,0.0,-1.0,-18.0,-9.0,6.0,-17.0,-0.0828857421875,-0.028076171875,-0.386474609375,-0.91815185546875,0.001953125,0.2880859375,0.87890625,-6.6875,-18.5625,0.4375
1.725,-4.0,-3.0,-2.0,3.0,2.0,-8.0,-19.0,-6.0
1.73,-2.0,-4.0,-4.0,-3.0,-5.0,-14.0,3.0,6.0,-0.0828857421875,-0.0252685546875,-0.38763427734375,-0.91778564453125,0.06494140625,0.2880859375,0.91064453125,-15.3125,-10.875,7.625
1.735
1.74,-1.0,0.0,2.0,2.0,-10.0,-6.0,-3.0,-2.0,-0.0821533203125,-0.02374267578125,-0.3892822265625,-0.91717529296875,0.064453125,0.25,0.92041015625,-13.9375,-2.5625,10.1875
1.745,-2.0,-3.0,-5.0,-7.0,-16.0,-46.0,-19.0,-5.0
1.75,-3.0,-3.0,-1.0,2.0,15.0,-1.0,-2.0,-6.0
1.755,1.0,-2.0,-2.0,-7.0,-18.0,-10.0,-4.0,-1.0,-0.08062744140625,-0.0225830078125,-0.39117431640625,-0.91656494140625,0.04443359375,0.193359375,0.93408203125,-13.0,0.125,11.375
1.76
1.765,-2.0,1.0,3.0,2.0,37.0,34.0,1.0,0.0,-0.07769775390625,-0.0233154296875,-0.39501953125,-0.9151611328125,0.03466796875,0.1416015625,0.9580078125,-3.25,9.625,11.0
1.77,0.0,0.0,-3.0,-5.0,2.0,5.0,-3.0,-2.0
1.775
1.78,-3.0,-3.0,2.0,5.0,13.0,1.0,3.0,-2.0,-0.07513427734375,-0.0260009765625,-0.3983154296875,-0.913818359375,0.0546875,0.13671875,1.01953125,-6.0,14.875,5.75
1.785
1.79,-4.0,-1.0,-2.0,-6.0,-24.0,-16.0,-7.0,-7.0
1.795,-4.0,-4.0,-6.0,-11.0,-29.0,-32.0,0.0,-4.0,-0.07275390625,-0.02789306640625,-0.398681640625,-0.913818359375,0.01171875,0.06982421875,1.037109375,-1.5625,15.6875,0.6875
1.8,0.0,-2.0,-2.0,3.0,-1.0,-17.0,-3.0,-1.0
1.805,-5.0,-1.0,5.0,16.0,7.0,-42.0,-3.0,4.0
1.81,-0.07196044921875,-0.0302734375,-0.4000244140625,-0.9132080078125,0.0078125,0.1162109375,1.0,3.875,15.375,7.1875
1.815,2.0,-1.0,-2.0,4.0,9.0,5.0,3.0,3.0
1.82,-3.0,0.0,-2.0,-12.0,-5.0,19.0,-5.0,-7.0,-0.071044921875,-0.03271484375,-0.401123046875,-0.9127197265625,0.00634765625,0.18310546875,0.97900390625,-1.0,16.0,5.625
1.825,-2.0,-3.0,-3.0,1.0,10.0,-4.0,19.0,12.0
1.83,3.0,-1.0,-3.0,-5.0,0.0,-3.0,-12.0,7.0
1.835,-0.06982421875,-0.03472900390625,-0.40191650390625,-0.91241455078125,-0.029296875,0.18798828125,1.0224609375,-4.0625,12.0,3.875
1.84,2.0,7.0,2.0,13.0,51.0,45.0,-10.0,-7.0
1.845,1.0,-2.0,-5.0,-8.0,0.0,-3.0,11.0,-2.0
1.85,-0.06707763671875,-0.0357666015625,-0.40216064453125,-0.9124755859375,-0.01025390625,0.13037109375,1.0205078125,-10.1875,12.0625,0.25
1.855,-93.0,-24.0,-6.0,-10.0,-47.0,-27.0,-65.0,-82.0
1.86,101.0,38.0,14.0,24.0,38.0,21.0,88.0,102.0,-0.06427001953125,-0.03607177734375,-0.40301513671875,-0.91229248046875,0.00537109375,0.193359375,1.009765625,-17.25,9.625,3.8125
1.865,-6.0,-33.0,-12.0,-5.0,5.0,-22.0,-87.0,-90.0
1.87,-0.0595703125,-0.0350341796875,-0.40386962890625,-0.9122314453125,-0.01513671875,0.212890625,1.033203125,-32.0625,6.0625,4.0625
1.875,20.0,12.0,-1.0,0.0,-11.0,53.0,59.0,33.0
1.88,77.0,18.0,3.0,-3.0,-4.0,16.0,-87.0,35.0
1.885,-0.05279541015625,-0.033935546875,-0.40380859375,-0.9127197265625,-0.015625,0.14501953125,0.99267578125,-39.8125,9.875,-2.5625
1.89
1.895,-102.0,-32.0,-5.0,-17.0,-44.0,5.0,-98.0,-108.0
1.9,-56.0,-19.0,-4.0,4.0,37.0,-5.0,-6.0,-23.0,-0.0364990234375,-0.0296630859375,-0.401611328125,-0.91461181640625,-0.07763671875,0.0244140625,1.1044921875,-52.1875,2.375,-12.8125
1.905,61.0,7.0,14.0,25.0,25.0,38.0,100.0,70.0
1.91,48.0,28.0,7.0,-9.0,4.0,37.0,41.0,95.0,-0.02825927734375,-0.02801513671875,-0.40069580078125,-0.9154052734375,-0.0390625,-0.02783203125,0.91064453125,-40.375,9.0625,-7.5
1.915,-94.0,-31.0,2.0,-18.0,-16.0,-20.0,90.0,-59.0
1.92,50.0,48.0,-7.0,-15.0,-71.0,-30.0,119.0,70.0
1.925,-128.0,-43.0,-10.0,-7.0,-6.0,15.0,-100.0,-92.0,-0.0169677734375,-0.0245361328125,-0.40142822265625,-0.91546630859375,-0.0107421875,-0.27978515625,1.099609375,-43.8125,9.4375,3.0625
1.93,-49.0,11.0,4.0,2.0,-13.0,-4.0,-24.0,12.0,-0.0084228515625,-0.023681640625,-0.39813232421875,-0.91705322265625,-0.02001953125,-0.48486328125,1.109375,-9.4375,15.8125,-20.875
1.935,82.0,31.0,-8.0,-33.0,-21.0,13.0,-52.0,75.0
1.94,-0.01678466796875,-0.03057861328125,-0.399658203125,-0.916015625,-0.00244140625,0.080078125,0.896484375,57.0625,20.0625,11.0
1.945,42.0,-2.0,-14.0,-3.0,83.0,12.0,-45.0,8.0
1.95,-19.0,-12.0,5.0,24.0,42.0,-2.0,66.0,-29.0,-0.02227783203125,-0.0369873046875,-0.40167236328125,-0.914794921875,-0.14501953125,0.447265625,0.8935546875,16.375,14.375,12.75
1.955,-21.0,-13.0,-13.0,2.0,21.0,-17.0,74.0,-1.0,-0.01654052734375,-0.0347900390625,-0.40142822265625,-0.91510009765625,-0.0654296875,0.134765625,1.00927734375,-40.3125,0.375,-3.1875
1.96,-44.0,3.0,1.0,-11.0,-29.0,6.0,-28.0,-1.0
1.965,-0.01263427734375,-0.03277587890625,-0.40185546875,-0.91510009765625,-0.0166015625,-0.06640625,1.0498046875,-16.9375,1.25,2.125
1.97,-4.0,-32.0,-5.0,-9.0,-47.0,-21.0,-84.0,-67.0
1.975,21.0,27.0,8.0,15.0,30.0,27.0,19.0,37.0,-0.01373291015625,-0.03387451171875,-0.4022216796875,-0.91485595703125,-0.0166015625,0.03173828125,1.009765625,9.75,5.5625,2.5
1.98,-128.0,-37.0,6.0,19.0,7.0,-6.0,-45.0,-91.0
1.985,8.0,-8.0,-11.0,-5.0,-16.0,-15.0,61.0,6.0,-0.01580810546875,-0.03582763671875,-0.40252685546875,-0.91461181640625,-0.0390625,0.10498046875,0.97802734375,11.5625,6.375,2.125
1.99
1.995,30.0,12.0,8.0,-1.0,-13.0,2.0,-84.0,-48.0
2.0,-0.01690673828125,-0.0372314453125,-0.40240478515625,-0.91461181640625,-0.07080078125,0.10107421875,0.99365234375,6.3125,3.625,-0.75
2.005,-24.0,-23.0,-25.0,-18.0,-29.0,-22.0,-128.0,-14.0
2.01,-122.0,-33.0,0.0,-5.0,47.0,10.0,-48.0,-62.0,-0.01739501953125,-0.037353515625,-0.4022216796875,-0.9146728515625,-0.05419921875,0.0576171875,1.01806640625,3.0625,-0.3125,-1.0625
2.015,-0.0184326171875,-0.03778076171875,-0.4024658203125,-0.91448974609375,-0.0419921875,0.103515625,1.00341796875,3.625,0.6875,1.75
2.02,40.0,32.0,-1.0,-14.0,-17.0,39.0,31.0,37.0
2.025,-41.0,-43.0,-3.0,8.0,0.0,-33.0,-11.0,-41.0
2.03,-0.02001953125,-0.03875732421875,-0.40325927734375,-0.91412353515625,-0.0556640625,0.173828125,0.98291015625,3.0625,1.25,4.875
2.035,8.0,49.0,-3.0,-9.0,9.0,-13.0,-30.0,16.0
2.04,-50.0,-20.0,-1.0,8.0,-22.0,-7.0,24.0,8.0
2.045,-27.0,2.0,1.0,-6.0,1.0,-3.0,15.0,-7.0,-0.02008056640625,-0.038330078125,-0.40374755859375,-0.91387939453125,-0.041015625,0.08642578125,0.99755859375,-2.1875,-1.0625,2.875
2.05,-0.02117919921875,-0.038330078125,-0.403564453125,-0.9139404296875,-0.04736328125,0.04345703125,1.00830078125,7.5,-2.375,-0.75
2.055,58.0,-4.0,-8.0,-5.0,-4.0,-2.0,15.0,49.0
2.06,43.0,20.0,-2.0,-6.0,3.0,-12.0,-5.0,-22.0
2.065,-0.0235595703125,-0.0384521484375,-0.40350341796875,-0.9139404296875,-0.04541015625,0.12841796875,1.0029296875,9.125,-4.5625,-0.125
2.07
2.075,-3.0,0.0,-1.0,0.0,-13.0,-4.0,-8.0,-16.0
2.08
2.085,-19.0,13.0,2.0,-2.0,-1.0,-6.0,-14.0,-47.0,-0.024658203125,-0.0372314453125,-0.40411376953125,-0.9136962890625,-0.06005859375,0.14453125,1.00341796875,-2.375,-9.5625,4.0
2.09,-0.02398681640625,-0.03399658203125,-0.40509033203125,-0.91339111328125,-0.048828125,0.0615234375,1.02001953125,-10.1875,-15.5625,6.0625
2.095
2.1,11.0,0.0,-3.0,13.0,20.0,-9.0,-17.0,-44.0,-0.0244140625,-0.0306396484375,-0.4061279296875,-0.91302490234375,-0.0244140625,0.0087890625,1.0498046875,-1.25,-17.5625,7.0
2.105,-13.0,-3.0,-12.0,-24.0,-95.0,-50.0,-19.0,14.0
2.11
2.115,4.0,10.0,1.0,-16.0,-59.0,-7.0,-8.0,6.0,-0.03009033203125,-0.02764892578125,-0.4105224609375,-0.9110107421875,-0.033203125,0.2138671875,0.966796875,4.0625,-11.625,16.3125
2.12,-5.0,8.0,-24.0,-42.0,-28.0,4.0,-13.0,-44.0
2.125,27.0,-32.0,8.0,14.0,-65.0,-31.0,25.0,41.0,-0.02874755859375,-0.02496337890625,-0.412109375,-0.910400390625,-0.015625,0.06298828125,1.017578125,-12.8125,-10.1875,9.9375
2.13,-6.0,32.0,13.0,14.0,21.0,2.0,-7.0,-19.0
2.135,-2.0,3.0,-8.0,-10.0,-50.0,0.0,1.0,36.0
2.14,-0.0286865234375,-0.0240478515625,-0.4136962890625,-0.90966796875,-0.0654296875,0.06201171875,0.958984375,-1.8125,-7.5,10.1875
2.145
2.15,-6.0,-7.0,-13.0,-34.0,-101.0,-98.0,-32.0,-22.0,-0.0286865234375,-0.02252197265625,-0.41546630859375,-0.908935546875,-0.03173828125,-0.00634765625,0.98046875,1.375,-8.5,11.5625
2.155
2.16,4.0,3.0,5.0,15.0,110.0,32.0,20.0,17.0
2.165,-0.0299072265625,-0.02117919921875,-0.41656494140625,-0.90838623046875,-0.0068359375,-0.0439453125,1.0859375,11.75,-9.25,7.3125
2.17,-2.0,0.0,0.0,3.0,-20.0,6.0,3.0,5.0
2.175,-1.0,-9.0,-10.0,-27.0,-56.0,-19.0,-20.0,-15.0,-0.03582763671875,-0.02154541015625,-0.41717529296875,-0.90789794921875,0.0283203125,-0.05712890625,0.97900390625,41.3125,-9.625,4.9375
2.18,5.0,1.0,0.0,5.0,36.0,-32.0,-10.0,-15.0,-0.04412841796875,-0.02301025390625,-0.41778564453125,-0.9072265625,0.03466796875,0.0400390625,1.09326171875,51.375,-9.0625,5.4375
2.185,-2.0,-2.0,-5.0,-3.0,14.0,4.0,-21.0,-11.0
2.19,-0.0587158203125,-0.0283203125,-0.41986083984375,-0.9052734375,0.0107421875,0.43505859375,0.8076171875,65.8125,-5.6875,15.625
2.195,-5.0,-5.0,-8.0,-13.0,-47.0,-1.0,-9.0,-5.0
2.2,-3.0,3.0,-3.0,-12.0,-41.0,-10.0,-4.0,7.0
2.205,-0.06268310546875,-0.02935791015625,-0.42138671875,-0.904296875,-0.05078125,0.4296875,0.89794921875,2.0625,-7.375,10.9375
2.21,8.0,0.0,-4.0,-4.0,-15.0,-16.0,-8.0,7.0
2.215,-4.0,1.0,1.0,6.0,21.0,24.0,3.0,2.0,-0.0579833984375,-0.02545166015625,-0.4219970703125,-0.9044189453125,0.03125,0.2119140625,0.97265625,-40.3125,-6.5625,3.3125
2.22,-16.0,-14.0,-8.0,1.0,12.0,6.0,2.0,6.0
2.225,3.0,9.0,9.0,12.0,22.0,2.0,-4.0,9.0,-0.05010986328125,-0.0205078125,-0.42327880859375,-0.9044189453125,0.01220703125,0.01611328125,1.01611328125,-46.375,-5.5,6.875
2.23,-1.0,0.0,-4.0,-4.0,-4.0,1.0,0.0,-5.0
2.235,-15.0,-13.0,-4.0,-5.0,-15.0,19.0,10.0,-14.0
2.24,-0.0445556640625,-0.0166015625,-0.42425537109375,-0.90435791015625,-0.0126953125,-0.1513671875,1.068359375,-20.4375,-8.125,5.6875
2.245,12.0,6.0,2.0,5.0,9.0,27.0,49.0,30.0
2.25,27.0,8.0,7.0,12.0,22.0,9.0,-2.0,5.0,-0.046630859375,-0.01544189453125,-0.42401123046875,-0.90435791015625,-0.009765625,-0.12451171875,1.0595703125,23.875,-12.6875,-0.875
2.255,16.0,5.0,-5.0,-4.0,-17.0,-22.0,-6.0,17.0
2.26,-0.05328369140625,-0.01531982421875,-0.42242431640625,-0.90472412109375,0.00927734375,-0.0068359375,1.04443359375,42.5625,-17.9375,-8.375
2.265,-27.0,-11.0,-6.0,-6.0,10.0,19.0,1.0,-18.0
2.27,6.0,0.0,-5.0,-1.0,-10.0,-5.0,7.0,14.0
2.275,-0.0604248046875,-0.0145263671875,-0.4190673828125,-0.9058837890625,0.05517578125,0.025390625,1.08984375,42.5625,-20.5625,-19.8125
2.28,-100.0,-50.0,-14.0,-10.0,-7.0,-2.0,-17.0,-22.0
2.285,73.0,51.0,5.0,1.0,7.0,7.0,-31.0,55.0,-0.071044921875,-0.01531982421875,-0.41400146484375,-0.90740966796875,0.0390625,0.06787109375,0.943359375,61.625,-22.6875,-29.625
2.29,-8.0,-22.0,3.0,1.0,5.0,14.0,1.0,-20.0
2.295,-0.08111572265625,-0.01507568359375,-0.40765380859375,-0.90948486328125,0.080078125,0.2275390625,1.02490234375,47.125,-25.3125,-37.3125
2.3,-8.0,16.0,-9.0,-8.0,-5.0,5.0,21.0,24.0
2.305,17.0,31.0,10.0,-1.0,2.0,35.0,33.0,-17.0
2.31
2.315,-0.08935546875,-0.0145263671875,-0.399658203125,-0.9122314453125,0.0888671875,0.25244140625,1.06201171875,36.5625,-23.0,-47.3125
2.32,67.0,72.0,13.0,1.0,-10.0,-11.0,5.0,63.0,-0.095458984375,-0.01416015625,-0.3927001953125,-0.9146728515625,0.08984375,0.33056640625,0.8984375,19.375,-16.625,-41.4375
2.325,-28.0,-75.0,-2.0,-8.0,-13.0,-21.0,-25.0,-18.0
2.33,23.0,33.0,13.0,2.0,6.0,33.0,39.0,52.0,-0.0966796875,-0.0126953125,-0.387939453125,-0.91656494140625,0.03662109375,0.4013671875,0.88671875,-13.5625,-13.875,-27.375
2.335
2.34,-0.09619140625,-0.0111083984375,-0.38616943359375,-0.9173583984375,0.078125,0.43701171875,0.7890625,-26.6875,-5.875,-9.5
2.345,-33.0,60.0,-24.0,-20.0,-4.0,-5.0,-40.0,-100.0,-0.089111328125,-0.009521484375,-0.3870849609375,-0.917724609375,-0.10302734375,0.48974609375,0.72509765625,-66.0,-1.875,7.3125
2.35
2.355,-0.07421875,-0.00128173828125,-0.38995361328125,-0.91790771484375,-0.27587890625,0.31201171875,0.87109375,-100.1875,-14.5,19.25
2.36,23.0,102.0,12.0,7.0,10.0,63.0,31.0,-48.0
2.365,-0.06298828125,0.01031494140625,-0.392822265625,-0.91741943359375,0.22900390625,0.0107421875,1.2353515625,-76.0625,-24.375,19.0625
2.37
2.375,-26.0,15.0,4.0,12.0,22.0,-4.0,44.0,74.0,-0.060791015625,0.015625,-0.39495849609375,-0.91656494140625,0.3720703125,-0.15673828125,1.09619140625,-4.5,-2.25,11.75
2.38,-17.0,-96.0,7.0,4.0,11.0,10.0,-1.0,13.0
2.385,-60.0,-125.0,-10.0,0.0,-2.0,-39.0,0.0,-18.0
2.39,-2.0,17.0,2.0,8.0,6.0,-1.0,-32.0,-2.0,-0.0638427734375,0.01214599609375,-0.39764404296875,-0.915283203125,-0.0322265625,0.0595703125,0.9091796875,27.25,5.0625,16.125
2.395,80.0,33.0,19.0,0.0,-9.0,6.0,-2.0,61.0,-0.06573486328125,0.01007080078125,-0.40081787109375,-0.913818359375,-0.09423828125,0.203125,0.951171875,8.5625,-3.625,20.5625
2.4,66.0,0.0,-14.0,-1.0,3.0,12.0,-6.0,25.0,-0.0653076171875,0.0130615234375,-0.40362548828125,-0.91253662109375,0.17236328125,0.1083984375,1.02294921875,-8.25,-7.3125,17.9375
2.405,-8.0,58.0,3.0,4.0,3.0,3.0,41.0,90.0
2.41,-0.06494140625,0.01470947265625,-0.4056396484375,-0.91168212890625,0.1611328125,0.0380859375,0.97900390625,-0.5,-1.0625,12.25
2.415,-111.0,-19.0,-9.0,-17.0,-12.0,8.0,-30.0,-55.0,-0.0660400390625,0.01336669921875,-0.40667724609375,-0.9111328125,0.03662109375,0.07568359375,0.978515625,11.25,1.75,6.0625
2.42,16.0,-28.0,11.0,8.0,3.0,-5.0,25.0,-21.0
2.425,87.0,63.0,-4.0,-7.0,-23.0,-16.0,-26.0,-7.0
2.43,-106.0,-128.0,2.0,11.0,18.0,16.0,33.0,-36.0,-0.06817626953125,0.01239013671875,-0.4080810546875,-0.91033935546875,0.03955078125,0.103515625,0.982421875,14.25,-2.0,9.0625
2.435,-0.06988525390625,0.012939453125,-0.409423828125,-0.90960693359375,0.18359375,0.1416015625,1.00927734375,6.5,0.8125,8.125
2.44,1.0,3.0,1.0,5.0,4.0,-27.0,-11.0,-1.0,-0.06939697265625,0.01251220703125,-0.40960693359375,-0.90960693359375,0.0517578125,0.07763671875,1.021484375,1.375,1.125,0.75
2.445
2.45,7.0,74.0,1.0,3.0,-5.0,-23.0,-6.0,5.0,-0.0703125,0.01275634765625,-0.4097900390625,-0.909423828125,0.05517578125,0.06298828125,1.04931640625,8.5625,-5.5625,1.3125
2.455
2.46,14.0,-25.0,9.0,4.0,12.0,8.0,-13.0,-33.0,-0.0712890625,0.01300048828125,-0.41033935546875,-0.90911865234375,0.150390625,0.13525390625,0.9912109375,3.3125,1.25,3.125
2.465,100.0,73.0,3.0,-6.0,-16.0,-8.0,20.0,8.0,-0.0703125,0.01251220703125,-0.409912109375,-0.90936279296875,0.05615234375,0.09228515625,0.9873046875,-2.3125,3.0,-3.1875
2.47,17.0,24.0,-6.0,-6.0,-6.0,35.0,-9.0,-16.0
2.475,-8.0,-41.0,-1.0,-1.0,-3.0,2.0,-2.0,-8.0,-0.070068359375,0.01239013671875,-0.40869140625,-0.90997314453125,0.0673828125,0.0859375,1.00927734375,4.3125,-1.4375,-1.4375
2.48,-9.0,-10.0,-2.0,0.0,1.0,-7.0,3.0,-9.0
2.485,-30.0,-45.0,-4.0,-2.0,0.0,-18.0,-12.0,-20.0,-0.07135009765625,0.01202392578125,-0.40875244140625,-0.9097900390625,0.06201171875,0.162109375,1.017578125,4.8125,-2.5625,1.0
2.49,18.0,33.0,-2.0,3.0,4.0,-12.0,-4.0,-5.0
2.495,-18.0,-29.0,0.0,-3.0,-17.0,-25.0,-12.0,-2.0,-0.0721435546875,0.011474609375,-0.408447265625,-0.909912109375,0.0908203125,0.13818359375,0.98681640625,4.1875,1.6875,-2.3125
2.5,-11.0,-23.0,-3.0,0.0,-5.0,-15.0,-1.0,-7.0
2.505,-0.07232666015625,0.00994873046875,-0.4068603515625,-0.91064453125,0.06640625,0.02880859375,0.97802734375,10.5,6.25,-11.0
2.51
2.515
2.52,-6.0,-5.0,2.0,14.0,18.0,10.0,-5.0,-4.0,-0.0751953125,0.00701904296875,-0.40423583984375,-0.91156005859375,0.0673828125,-0.005859375,1.01123046875,31.0,7.1875,-18.0
2.525,-6.0,-12.0,0.0,13.0,9.0,-5.0,-7.0,-5.0
2.53,-0.08087158203125,0.00225830078125,-0.40167236328125,-0.9122314453125,0.072265625,0.0048828125,1.0390625,50.375,10.375,-17.9375
2.535,6.0,-1.0,8.0,13.0,13.0,3.0,15.0,6.0,-0.08984375,-0.00469970703125,-0.39996337890625,-0.91217041015625,0.09326171875,0.162109375,0.9755859375,63.25,16.875,-12.5625
2.54,-5.0,2.0,-11.0,-16.0,-29.0,-12.0,-1.0,-5.0
2.545,4.0,4.0,2.0,1.0,5.0,-5.0,0.0,-2.0,-0.09796142578125,-0.01300048828125,-0.399169921875,-0.91156005859375,-0.005859375,0.25341796875,0.8974609375,56.25,20.5625,-5.875
2.55,-3.0,-3.0,-6.0,-2.0,-17.0,17.0,6.0,-2.0,-0.10552978515625,-0.01922607421875,-0.39923095703125,-0.91058349609375,0.00732421875,0.3916015625,0.92626953125,40.9375,12.6875,0.875
2.555,-0.109130859375,-0.02197265625,-0.4005126953125,-0.9095458984375,0.05126953125,0.41552734375,0.9150390625,10.6875,7.25,8.375
2.56,-2.0,-9.0,-8.0,-12.0,-7.0,-13.0,4.0,3.0
2.565
2.57,-3.0,-5.0,0.0,6.0,9.0,5.0,1.0,-13.0,-0.10888671875,-0.02099609375,-0.4024658203125,-0.90875244140625,0.0810546875,0.36181640625,0.9912109375,-12.875,-1.0,12.6875
2.575
2.58,0.0,3.0,-3.0,-8.0,-21.0,-6.0,-8.0,-3.0
2.585,-6.0,-5.0,-3.0,-4.0,-13.0,-14.0,-9.0,-5.0,-0.10577392578125,-0.01788330078125,-0.404052734375,-0.908447265625,0.1640625,0.28173828125,1.02099609375,-28.125,-0.5,8.9375
2.59,-6.0,-4.0,-6.0,-12.0,-17.0,-22.0,-20.0,-5.0
2.595,-0.09967041015625,-0.015380859375,-0.40399169921875,-0.90924072265625,0.12353515625,0.11376953125,1.017578125,-32.1875,5.5625,-2.5625
2.6,-1.0,-2.0,-3.0,-1.0,-5.0,4.0,7.0,3.0
2.605,-0.0953369140625,-0.01519775390625,-0.4019775390625,-0.91058349609375,0.06103515625,-0.0263671875,1.0,-8.625,8.5,-14.625
2.61,-1.0,-2.0,0.0,0.0,-8.0,-31.0,-6.0,-2.0
2.615,-3.0,-2.0,-4.0,-6.0,-13.0,-19.0,-8.0,-3.0,-0.09625244140625,-0.01751708984375,-0.39923095703125,-0.91168212890625,0.005859375,0.0185546875,0.99658203125,21.625,5.625,-18.25
2.62,-4.0,-5.0,-2.0,0.0,-1.0,-10.0,-18.0,-5.0,-0.10162353515625,-0.02056884765625,-0.396484375,-0.9122314453125,0.015625,0.17919921875,0.994140625,36.6875,0.0625,-16.25
2.625,0.0,-1.0,0.0,-2.0,0.0,0.0,3.0,1.0
2.63,-1.0,-2.0,2.0,8.0,5.0,-7.0,-3.0,-3.0,-0.1077880859375,-0.0230712890625,-0.39349365234375,-0.9127197265625,0.03466796875,0.287109375,0.98095703125,32.9375,-3.25,-17.3125
2.635,-2.0,-1.0,-2.0,5.0,-6.0,-7.0,-3.0,1.0
2.64,-4.0,-5.0,-17.0,-44.0,-29.0,-6.0,2.0,-1.0,-0.10986328125,-0.02447509765625,-0.3907470703125,-0.91363525390625,0.0498046875,0.23583984375,0.96484375,12.8125,1.4375,-17.0625
2.645,-4.0,2.0,11.0,41.0,23.0,-12.0,-3.0,-5.0,-0.10528564453125,-0.02496337890625,-0.38970947265625,-0.91461181640625,0.03076171875,0.13671875,0.92431640625,-19.1875,11.9375,-8.6875
2.65,-8.0,-6.0,-1.0,4.0,24.0,28.0,15.0,-4.0
2.655,-0.10894775390625,-0.03021240234375,-0.38909912109375,-0.91424560546875,0.04736328125,0.3193359375,0.943359375,24.0,20.1875,-5.1875
2.66,2.0,0.0,0.0,1.0,13.0,19.0,-8.0,-2.0
2.665,0.0,-1.0,-2.0,16.0,32.0,1.0,1.0,-1.0
2.67,-3.0,-7.0,-7.0,-14.0,-44.0,-31.0,-6.0,-2.0,-0.11572265625,-0.0379638671875,-0.388671875,-0.913330078125,-0.0126953125,0.4814453125,0.97607421875,37.25,23.0625,-3.125
2.675,-8.0,-5.0,-4.0,-5.0,110.0,31.0,-4.0,-4.0,-0.12042236328125,-0.04541015625,-0.39007568359375,-0.91180419921875,-0.0234375,0.6083984375,0.90185546875,16.5,27.5,8.1875
2.68,1.0,-4.0,-14.0,-47.0,-86.0,-27.0,-11.0,-3.0
2.685,-0.12298583984375,-0.05035400390625,-0.39410400390625,-0.90948486328125,-0.00927734375,0.67431640625,0.85791015625,-4.8125,22.375,23.75
2.69,5.0,1.0,1.0,16.0,40.0,76.0,35.0,7.0
2.695,-14.0,-2.0,15.0,77.0,8.0,36.0,-1.0,-4.0
2.7,-0.12078857421875,-0.05010986328125,-0.40191650390625,-0.9063720703125,0.205078125,0.75244140625,1.01220703125,-45.3125,23.4375,43.9375
2.705,10.0,5.0,4.0,18.0,-114.0,-12.0,35.0,13.0,-0.10791015625,-0.04815673828125,-0.40985107421875,-0.904541015625,0.251953125,0.41015625,0.94775390625,-84.875,42.375,38.875
2.71,-6.0,-7.0,-16.0,-78.0,-23.0,-55.0,-48.0,-18.0
2.715,-0.08929443359375,-0.0477294921875,-0.41229248046875,-0.90545654296875,0.1279296875,-0.0419921875,0.9443359375,-82.75,52.3125,3.5
2.72,-7.0,-8.0,-13.0,-12.0,-76.0,-50.0,-6.0,-9.0
2.725,24.0,17.0,11.0,-47.0,52.0,47.0,93.0,43.0,-0.06646728515625,-0.050048828125,-0.40863037109375,-0.908935546875,-0.1826171875,-0.5810546875,1.05126953125,-61.375,52.8125,-31.5
2.73,16.0,23.0,27.0,62.0,61.0,17.0,50.0,15.0
2.735,-14.0,-16.0,-24.0,-71.0,-70.0,-74.0,-59.0,-19.0,-0.05487060546875,-0.05792236328125,-0.40509033203125,-0.91082763671875,-0.2900390625,-0.6162109375,1.0673828125,12.0,50.375,-24.0
2.74,-21.0,-24.0,-34.0,-59.0,-103.0,-50.0,-32.0,-24.0
2.745,-0.0621337890625,-0.0704345703125,-0.40338134765625,-0.9102783203125,-0.23095703125,0.0390625,0.951171875,76.375,37.375,-6.9375
2.75,9.0,13.0,8.0,9.0,-53.0,-21.0,8.0,14.0
2.755
2.76,16.0,9.0,14.0,16.0,127.0,114.0,30.0,17.0,-0.07574462890625,-0.07940673828125,-0.40350341796875,-0.908447265625,-0.13623046875,0.58349609375,0.81787109375,63.75,11.4375,5.5625
2.765
2.77,3.0,6.0,12.0,42.0,-75.0,-6.0,49.0,16.0,-0.07745361328125,-0.07879638671875,-0.4039306640625,-0.90814208984375,-0.09423828125,0.37939453125,0.94580078125,-5.0625,-7.875,3.375
2.775,4.0,3.0,15.0,33.0,127.0,96.0,53.0,15.0
2.78,-6.0,-12.0,-21.0,-40.0,-40.0,-86.0,-50.0,-21.0
2.785,-3.0,4.0,4.0,6.0,39.0,34.0,-3.0,-8.0,-0.07318115234375,-0.0767822265625,-0.40301513671875,-0.9090576171875,-0.10009765625,0.07470703125,1.02099609375,-18.25,-2.625,-7.25
2.79,-0.07257080078125,-0.0767822265625,-0.40191650390625,-0.90960693359375,-0.08447265625,0.13330078125,0.98388671875,1.375,0.75,-7.0625
2.795,-5.0,-1.0,3.0,8.0,90.0,45.0,14.0,-4.0
2.8,2.0,5.0,5.0,15.0,32.0,46.0,0.0,0.0,-0.07366943359375,-0.07818603515625,-0.4010009765625,-0.9097900390625,-0.0947265625,0.21728515625,1.0,8.0625,3.625,-5.125
2.805,11.0,0.0,2.0,20.0,-118.0,-73.0,0.0,8.0
2.81,-0.0745849609375,-0.07958984375,-0.40008544921875,-0.9100341796875,-0.083984375,0.20068359375,1.00146484375,8.5,4.75,-5.5625
2.815,5.0,-1.0,-2.0,-8.0,53.0,43.0,14.0,9.0
2.82,-5.0,-2.0,5.0,0.0,-17.0,-19.0,-24.0,-7.0
2.825,-0.07476806640625,-0.0809326171875,-0.3988037109375,-0.91046142578125,-0.07080078125,0.22802734375,0.9599609375,2.5,6.875,-8.625
2.83,13.0,9.0,0.0,15.0,72.0,26.0,29.0,13.0,-0.07354736328125,-0.08294677734375,-0.39727783203125,-0.9110107421875,-0.11181640625,0.21533203125,0.9111328125,-3.5625,10.625,-10.5
2.835,5.0,7.0,11.0,1.0,52.0,88.0,29.0,13.0
2.84,-6.0,-6.0,-6.0,-19.0,-31.0,-18.0,-11.0,-3.0,-0.072021484375,-0.0843505859375,-0.39617919921875,-0.9114990234375,-0.13818359375,0.19921875,0.91943359375,-5.1875,6.875,-7.375
2.845
2.85,15.0,18.0,19.0,42.0,102.0,80.0,46.0,18.0
2.855,-6.0,-6.0,-5.0,2.0,-23.0,-72.0,-34.0,-8.0,-0.07098388671875,-0.08477783203125,-0.39569091796875,-0.9117431640625,-0.1259765625,0.20556640625,0.92919921875,-5.6875,2.25,-3.625
2.86,2.0,-2.0,-6.0,-19.0,12.0,6.0,5.0,3.0,-0.069091796875,-0.0843505859375,-0.3958740234375,-0.911865234375,-0.12939453125,0.1787109375,0.953125,-10.375,-0.25,0.5625
2.865,-1.0,-8.0,-5.0,-6.0,-14.0,16.0,4.0,1.0
2.87,-0.0677490234375,-0.08349609375,-0.3966064453125,-0.9117431640625,-0.12744140625,0.24951171875,0.97509765625,-13.6875,-3.1875,3.5
2.875,-5.0,-8.0,-14.0,-20.0,-37.0,-5.0,-10.0,-11.0
2.88,3.0,3.0,7.0,18.0,21.0,7.0,4.0,3.0
2.885,-0.06524658203125,-0.08197021484375,-0.39764404296875,-0.91156005859375,-0.11279296875,0.171875,0.9228515625,-16.625,-3.0625,5.4375
2.89,-4.0,-1.0,-4.0,4.0,1.0,-9.0,1.0,-8.0,-0.0628662109375,-0.07965087890625,-0.39898681640625,-0.911376953125,-0.146484375,0.0927734375,0.90771484375,-13.5,-10.125,8.3125
2.895,-2.0,-2.0,-7.0,-6.0,-13.0,5.0,8.0,6.0
2.9,-0.06207275390625,-0.07611083984375,-0.40069580078125,-0.91094970703125,-0.19580078125,0.0068359375,0.89697265625,-2.4375,-23.875,13.375
2.905,23.0,20.0,8.0,3.0,-6.0,-8.0,29.0,47.0
2.91,-0.0635986328125,-0.07086181640625,-0.4027099609375,-0.910400390625,-0.22705078125,-0.02001953125,0.89453125,7.5,-40.8125,16.9375
2.915,8.0,0.0,-3.0,5.0,5.0,-2.0,16.0,3.0
2.92,-14.0,-21.0,-9.0,-1.0,0.0,-5.0,-6.0,-23.0,-0.06683349609375,-0.0631103515625,-0.4051513671875,-0.90966796875,-0.18701171875,-0.01611328125,0.93408203125,10.5625,-55.375,21.25
2.925,13.0,1.0,2.0,1.0,-2.0,-5.0,2.0,-25.0
2.93,-0.07080078125,-0.05303955078125,-0.4080810546875,-0.90869140625,-0.13330078125,-0.01123046875,0.94140625,8.9375,-67.0625,24.3125
2.935
2.94,11.0,6.0,-2.0,-6.0,-7.0,-3.0,-34.0,2.0,-0.07330322265625,-0.04095458984375,-0.410400390625,-0.9080810546875,-0.12109375,0.0087890625,0.95458984375,-5.0625,-75.0,20.9375
2.945,-6.0,-1.0,-3.0,0.0,2.0,-5.0,-19.0,-26.0
2.95,0.0,-13.0,-4.0,1.0,-1.0,2.0,22.0,-3.0,-0.0751953125,-0.02740478515625,-0.41204833984375,-0.90771484375,-0.1083984375,0.04736328125,0.9931640625,-14.5,-82.625,16.9375
2.955,-23.0,10.0,5.0,-1.0,-3.0,-5.0,-1.0,-10.0
2.96,-5.0,-7.0,9.0,9.0,3.0,6.0,-2.0,3.0,-0.07733154296875,-0.01318359375,-0.4119873046875,-0.9078369140625,-0.05224609375,0.07763671875,1.00146484375,-17.375,-85.4375,6.625
2.965,15.0,34.0,8.0,2.0,8.0,1.0,12.0,-80.0
2.97,-4.0,-20.0,-9.0,-4.0,-6.0,-1.0,1.0,7.0,-0.0794677734375,0.0010986328125,-0.40985107421875,-0.90875244140625,0.033203125,0.1123046875,1.03369140625,-20.125,-83.3125,-6.6875
2.975,-14.0,-4.0,-3.0,-3.0,-2.0,-3.0,-7.0,-29.0,-0.08319091796875,0.01409912109375,-0.40533447265625,-0.91033935546875,0.068359375,0.12744140625,0.998046875,-11.125,-80.125,-21.125
2.98,4.0,0.0,-3.0,-5.0,-10.0,-6.0,-2.0,7.0
2.985,-6.0,0.0,-10.0,-33.0,24.0,16.0,10.0,13.0,-0.08697509765625,0.02593994140625,-0.4005126953125,-0.911865234375,0.11572265625,0.11083984375,0.9501953125,-7.4375,-72.5,-23.5
2.99,-3.0,-3.0,0.0,3.0,-21.0,-9.0,-7.0,-7.0
2.995,-5.0,-9.0,-4.0,1.0,-2.0,-1.0,1.0,-8.0,-0.08740234375,0.0299072265625,-0.3974609375,-0.91302490234375,0.16748046875,0.14892578125,0.75390625,-11.0,-18.0,-16.875
3.0,-4.0,2.0,-1.0,12.0,22.0,-3.0,-7.0,-4.0
3.005,0.0,-2.0,-1.0,8.0,14.0,1.0,3.0,9.0,-0.09295654296875,0.0267333984375,-0.40167236328125,-0.91070556640625,-0.10009765625,0.470703125,0.765625,13.75,-8.125,29.75
3.01,-1.0,2.0,0.0,-16.0,-32.0,-11.0,-11.0,-1.0
3.015,-0.0888671875,0.02545166015625,-0.41070556640625,-0.9071044921875,-0.15576171875,0.59716796875,0.806640625,-48.375,2.4375,62.0
3.02,2.0,1.0,1.0,2.0,-6.0,-13.0,1.0,4.0
3.025,-2.0,0.0,4.0,7.0,-11.0,-10.0,-5.0,-7.0
3.03,-2.0,0.0,-2.0,1.0,12.0,-12.0,-5.0,-1.0,-0.06768798828125,0.03472900390625,-0.41900634765625,-0.90484619140625,-0.03369140625,0.541015625,0.712890625,-137.5,3.375,57.4375
3.035,-4.0,-3.0,-4.0,1.0,-13.0,-10.0,-3.0,-4.0,-0.037353515625,0.046875,-0.42578125,-0.90289306640625,0.1494140625,0.21337890625,0.7646484375,-187.8125,13.25,50.75
3.04,-0.003173828125,0.05743408203125,-0.43121337890625,-0.90045166015625,0.29296875,-0.01416015625,0.87158203125,-201.125,32.3125,45.6875
3.045,-3.0,-2.0,1.0,1.0,-1.0,1.0,-6.0,-5.0
3.05
3.055,0.0,-1.0,-4.0,-3.0,19.0,10.0,7.0,0.0,0.02703857421875,0.063232421875,-0.43536376953125,-0.89764404296875,0.2958984375,-0.13037109375,0.908203125,-168.375,47.75,38.6875
3.06,0.0,1.0,-1.0,3.0,0.0,-6.0,-1.0,1.0
3.065,0.0,4.0,1.0,6.0,-4.0,-17.0,-2.0,0.0
3.07,-6.0,-2.0,-1.0,7.0,24.0,8.0,0.0,-2.0,0.048828125,0.06317138671875,-0.43780517578125,-0.89556884765625,0.21630859375,-0.2236328125,0.9658203125,-109.8125,55.875,25.75
3.075,-1.0,-1.0,0.0,6.0,14.0,13.0,-2.0,-3.0,0.0623779296875,0.06036376953125,-0.43792724609375,-0.89483642578125,0.22412109375,-0.21484375,1.06787109375,-60.375,59.875,9.5625
3.08,0.0,-2.0,-8.0,-25.0,-35.0,-5.0,-5.0,-2.0
3.085,-3.0,-6.0,-9.0,-15.0,-32.0,-7.0,-4.0,-3.0
3.09,0.07098388671875,0.0535888671875,-0.4371337890625,-0.89501953125,0.27587890625,-0.19970703125,1.107421875,-27.1875,73.125,3.625
3.095,-1.0,0.0,-2.0,-4.0,-17.0,-8.0,1.0,-1.0
3.1,-2.0,1.0,2.0,-2.0,-1.0,-7.0,-6.0,-4.0
3.105,0.0760498046875,0.04412841796875,-0.43548583984375,-0.89593505859375,0.16552734375,-0.0966796875,1.08642578125,-9.1875,72.625,-2.9375
3.11,-1.0,1.0,0.0,2.0,18.0,-2.0,1.0,-2.0,0.07867431640625,0.03564453125,-0.43292236328125,-0.8973388671875,0.08740234375,-0.1083984375,1.10693359375,1.8125,57.75,-11.25
3.115
3.12,-3.0,-3.0,0.0,1.0,0.0,-3.0,-3.0,-2.0
3.125,0.08111572265625,0.02880859375,-0.43115234375,-0.898193359375,0.1455078125,-0.11669921875,1.14794921875,-1.4375,54.125,-6.0
3.13,1.0,-2.0,3.0,-2.0,-4.0,0.0,2.0,2.0
3.135
3.14,2.0,5.0,2.0,6.0,-6.0,3.0,-3.0,2.0,0.08294677734375,0.02203369140625,-0.43023681640625,-0.898681640625,0.16650390625,-0.10546875,1.1171875,1.5625,53.6875,-0.0625
3.145,-2.0,-3.0,0.0,-5.0,3.0,28.0,-1.0,-4.0,0.08319091796875,0.01556396484375,-0.42913818359375,-0.8992919921875,0.0869140625,-0.052734375,1.10107421875,5.8125,44.0,-2.75
3.15,1.0,0.0,0.0,6.0,36.0,24.0,2.0,2.0
3.155,-1.0,-3.0,-3.0,6.0,19.0,10.0,6.0,-1.0,0.08209228515625,0.01007080078125,-0.42767333984375,-0.90020751953125,0.0009765625,-0.0087890625,1.08349609375,8.1875,30.5625,-7.375
3.16,0.0,1.0,4.0,3.0,-3.0,-13.0,-1.0,0.0
3.165,-5.0,-6.0,-7.0,-14.0,-17.0,-14.0,-8.0,-6.0,0.08123779296875,0.00665283203125,-0.42681884765625,-0.90069580078125,0.0234375,-0.01708984375,1.07763671875,2.375,21.6875,-3.5625
3.17,1.0,1.0,4.0,12.0,37.0,-6.0,1.0,2.0,0.08184814453125,0.00457763671875,-0.4271240234375,-0.9005126953125,0.06982421875,-0.09765625,1.05029296875,-2.5625,21.625,4.125
3.175,-3.0,-3.0,-4.0,-1.0,7.0,-2.0,-7.0,-4.0
3.18,-1.0,1.0,0.0,-4.0,-31.0,-24.0,-3.0,3.0,0.083251953125,0.00439453125,-0.42742919921875,-0.9002685546875,-0.044921875,-0.2021484375,1.255859375,-6.5625,6.5,2.5625
3.185,-2.0,-2.0,-1.0,4.0,1.0,0.0,-6.0,-11.0
3.19,15.0,-1.0,-6.0,-6.0,-21.0,-10.0,-13.0,36.0
3.195,-3.0,-3.0,-2.0,-4.0,-14.0,1.0,-4.0,6.0,0.0789794921875,0.0118408203125,-0.42431640625,-0.90203857421875,-0.18310546875,0.099609375,1.28857421875,-16.5,-55.625,-26.4375
3.2,-5.0,2.0,-3.0,-5.0,-10.0,-3.0,-3.0,1.0,0.0726318359375,0.0220947265625,-0.41973876953125,-0.90447998046875,0.33837890625,-0.212890625,0.93603515625,13.625,-41.3125,-30.8125
3.205,2.0,-3.0,0.0,6.0,4.0,8.0,3.0,-4.0
3.21,-4.0,-5.0,-5.0,-4.0,-1.0,-6.0,-2.0,-14.0
3.215,-5.0,-1.0,-3.0,-6.0,-13.0,-2.0,-2.0,-7.0,0.0689697265625,0.02642822265625,-0.418212890625,-0.9053955078125,0.15966796875,-0.49072265625,1.07666015625,31.6875,-18.9375,-10.0625
3.22,-6.0,-3.0,-6.0,-8.0,9.0,18.0,3.0,-12.0
3.225,0.05975341796875,0.0260009765625,-0.41815185546875,-0.90606689453125,-0.015625,-0.2939453125,1.0322265625,60.25,-20.375,-3.5
3.23,-2.0,-4.0,1.0,-4.0,-11.0,-4.0,1.0,-5.0,0.047607421875,0.02581787109375,-0.41571044921875,-0.907958984375,0.06689453125,-0.05615234375,1.00146484375,60.125,-22.9375,-18.375
3.235,0.0,-1.0,0.0,2.0,0.0,-4.0,-1.0,-2.0
3.24
3.245,0.0,1.0,-1.0,-4.0,-19.0,-14.0,-9.0,-4.0,0.03997802734375,0.02618408203125,-0.411865234375,-0.9100341796875,-0.0146484375,0.05712890625,0.9931640625,28.0625,-21.0625,-26.25
3.25,0.0,5.0,1.0,-3.0,-10.0,2.0,0.0,2.0,0.0391845703125,0.0306396484375,-0.40789794921875,-0.91168212890625,-0.00927734375,-0.06591796875,1.02099609375,-8.875,-26.3125,-25.875
3.255,-2.0,-3.0,-6.0,-17.0,-35.0,-16.0,-4.0,-4.0,0.042236328125,0.0367431640625,-0.404296875,-0.9129638671875,0.04150390625,-0.18505859375,1.05322265625,-25.5625,-23.125,-22.6875
3.26
3.265,-6.0,-6.0,-4.0,-12.0,-34.0,-39.0,-17.0,-10.0
3.27,0.04669189453125,0.04156494140625,-0.40216064453125,-0.91351318359375,0.03955078125,-0.30078125,1.01318359375,-22.3125,-14.4375,-13.3125
3.275,-2.0,2.0,0.0,1.0,-20.0,-33.0,-7.0,-2.0
3.28,2.0,-1.0,3.0,4.0,15.0,19.0,3.0,0.0
3.285,-4.0,-4.0,-12.0,-7.0,2.0,20.0,9.0,2.0,0.04693603515625,0.043701171875,-0.4010009765625,-0.91387939453125,-0.02001953125,-0.2021484375,1.0400390625,-1.375,-14.5,-8.1875
3.29,-6.0,-2.0,-1.0,7.0,-23.0,4.0,-2.0,-10.0,0.0445556640625,0.0438232421875,-0.40093994140625,-0.91400146484375,0.048828125,-0.20703125,1.0185546875,18.25,-6.125,-1.5
3.295
3.3,0.0,1.0,0.0,11.0,37.0,22.0,10.0,2.0
3.305,0.0394287109375,0.042724609375,-0.40185546875,-0.91387939453125,0.08251953125,-0.1416015625,1.0537109375,31.5625,-4.0,4.375
3.31,-12.0,-9.0,1.0,3.0,5.0,-6.0,-3.0,-5.0
3.315,-26.0,-23.0,-4.0,5.0,42.0,1.0,-2.0,-2.0,0.032958984375,0.04034423828125,-0.403564453125,-0.91351318359375,0.03857421875,-0.0322265625,1.0537109375,35.125,-3.8125,8.8125
3.32,6.0,5.0,1.0,-4.0,10.0,21.0,6.0,6.0,0.02923583984375,0.0384521484375,-0.40509033203125,-0.91302490234375,0.07177734375,0.01220703125,1.04931640625,16.75,2.5,8.875
3.325,1.0,0.0,0.0,-8.0,-19.0,-12.0,-8.0,-12.0
3.33,0.0,0.0,3.0,3.0,4.0,-8.0,-2.0,1.0,0.029052734375,0.03692626953125,-0.404541015625,-0.913330078125,0.00830078125,-0.07763671875,1.03076171875,3.9375,4.9375,-3.5
3.335,3.0,3.0,-12.0,-19.0,-16.0,-20.0,-4.0,-5.0
3.34,6.0,3.0,-1.0,3.0,7.0,16.0,1.0,-3.0
3.345,0.0291748046875,0.03631591796875,-0.4036865234375,-0.91375732421875,-0.0078125,-0.1943359375,1.0380859375,8.0,0.125,-5.9375
3.35,0.0,0.0,6.0,-11.0,-37.0,-4.0,3.0,6.0
3.355,2.0,-3.0,-1.0,-12.0,-32.0,-8.0,10.0,2.0,0.02783203125,0.03546142578125,-0.403564453125,-0.91387939453125,0.02490234375,-0.17529296875,1.04248046875,15.6875,0.0,-1.6875
3.36,7.0,4.0,6.0,16.0,-12.0,-15.0,0.0,-1.0
3.365,8.0,1.0,6.0,9.0,4.0,-5.0,-7.0,-4.0
3.37,0.022216796875,0.0325927734375,-0.403564453125,-0.91412353515625,0.0078125,-0.03662109375,0.99609375,33.6875,-0.375,-1.1875
3.375,28.0,10.0,0.0,-17.0,24.0,11.0,9.0,8.0
3.38,-31.0,-5.0,3.0,6.0,-6.0,-13.0,-6.0,-11.0
3.385,0.017333984375,0.0289306640625,-0.40399169921875,-0.9141845703125,-0.0107421875,0.02294921875,0.96875,28.875,4.6875,1.5625
3.39,47.0,22.0,4.0,10.0,-7.0,-5.0,12.0,29.0
3.395,10.0,6.0,-3.0,-6.0,-7.0,-5.0,-6.0,4.0,0.01708984375,0.02880859375,-0.40399169921875,-0.9141845703125,-0.00927734375,-0.06103515625,0.9853515625,1.9375,-3.3125,-0.4375
3.4,0.01641845703125,0.0291748046875,-0.40252685546875,-0.91485595703125,0.0244140625,-0.03515625,1.0634765625,0.9375,-4.8125,-9.1875
3.405,-16.0,-4.0,2.0,16.0,0.0,-8.0,-4.0,-6.0
3.41,-17.0,-7.0,-7.0,-11.0,18.0,17.0,-7.0,-33.0,0.0142822265625,0.02984619140625,-0.399658203125,-0.9161376953125,0.00390625,0.013671875,1.03662109375,4.375,-10.6875,-18.5
3.415,-6.0,-1.0,-9.0,-14.0,-63.0,-13.0,-10.0,12.0,0.01708984375,0.0303955078125,-0.39923095703125,-0.916259765625,-0.0810546875,-0.04736328125,1.0146484375,-16.5,-5.125,-2.5625
3.42,13.0,2.0,-2.0,-11.0,-7.0,16.0,-4.0,23.0
3.425,4.0,-3.0,-8.0,-13.0,-34.0,-5.0,-12.0,-19.0
3.43
3.435,10.0,9.0,7.0,14.0,14.0,23.0,1.0,2.0,0.01824951171875,0.0330810546875,-0.40008544921875,-0.91571044921875,0.107421875,0.02490234375,1.12841796875,-18.8125,-7.6875,6.1875
3.44,-7.0,-14.0,-3.0,-3.0,-15.0,-28.0,4.0,8.0
3.445,0.016845703125,0.03204345703125,-0.3995361328125,-0.91607666015625,0.07958984375,-0.0078125,0.904296875,6.3125,4.875,-3.6875
3.45,-29.0,-15.0,-6.0,-5.0,9.0,-1.0,8.0,-18.0,0.01800537109375,0.0325927734375,-0.40020751953125,-0.91571044921875,-0.02978515625,-0.1806640625,0.9609375,1.5625,-5.5625,4.0625
3.455,2.0,5.0,-12.0,-20.0,-4.0,-13.0,5.0,1.0
3.46,2.0,-3.0,-9.0,-2.0,25.0,11.0,-15.0,3.0
3.465,41.0,24.0,5.0,0.0,29.0,-2.0,3.0,29.0,0.01922607421875,0.03302001953125,-0.3990478515625,-0.91619873046875,0.017578125,-0.1201171875,1.00048828125,-3.625,-1.375,-7.375
3.47,-16.0,-9.0,-1.0,0.0,-23.0,-2.0,-9.0,-15.0,0.02392578125,0.03582763671875,-0.39495849609375,-0.917724609375,0.07958984375,-0.21630859375,1.00341796875,-21.8125,-1.0,-24.8125
3.475,-11.0,-4.0,11.0,15.0,24.0,26.0,1.0,4.0,0.02117919921875,0.0364990234375,-0.3934326171875,-0.91839599609375,0.1533203125,-0.01904296875,0.95703125,9.625,-2.0625,-9.6875
3.48
3.485,-48.0,-18.0,0.0,8.0,2.0,-10.0,4.0,-18.0
3.49,0.020263671875,0.03564453125,-0.39154052734375,-0.9193115234375,0.0244140625,-0.02685546875,1.03125,3.5625,0.8125,-12.0
3.495,-3.0,-7.0,1.0,10.0,-13.0,5.0,14.0,23.0
3.5,6.0,5.0,-3.0,5.0,-15.0,-24.0,1.0,0.0,0.0191650390625,0.035400390625,-0.3885498046875,-0.92059326171875,-0.0283203125,-0.08251953125,1.01953125,7.0625,-6.0,-19.4375
3.505,9.0,13.0,4.0,9.0,12.0,4.0,4.0,-16.0
3.51,-1.0,1.0,-5.0,-7.0,-17.0,-16.0,-3.0,18.0,0.01519775390625,0.0355224609375,-0.38568115234375,-0.921875,0.1513671875,0.19580078125,0.98681640625,2.4375,-2.125,-17.3125
3.515
3.52,16.0,21.0,5.0,20.0,60.0,-6.0,15.0,-1.0,0.01513671875,0.0340576171875,-0.3851318359375,-0.922119140625,0.12548828125,-0.02294921875,0.919921875,1.625,13.3125,-3.0
3.525,-4.0,3.0,13.0,15.0,-8.0,-8.0,9.0,0.0
3.53,1.0,0.0,-6.0,-16.0,-11.0,1.0,-23.0,-5.0,0.01654052734375,0.03192138671875,-0.385498046875,-0.92205810546875,0.00732421875,-0.03515625,0.95751953125,-4.1875,11.6875,2.3125
3.535,-5.0,-7.0,-3.0,-1.0,-1.0,5.0,-11.0,-12.0
3.54,0.0,-5.0,-1.0,-3.0,6.0,5.0,-5.0,-3.0,0.018310546875,0.0302734375,-0.38525390625,-0.92218017578125,0.005859375,-0.0673828125,0.95556640625,-4.8125,10.4375,-1.25
3.545,-4.0,-7.0,-7.0,-6.0,5.0,-1.0,-12.0,2.0
3.55,0.0196533203125,0.02899169921875,-0.38482666015625,-0.92236328125,0.0419921875,-0.119140625,0.99267578125,-0.125,9.75,-2.4375
3.555,-3.0,-6.0,-3.0,0.0,18.0,12.0,6.0,-13.0
3.56,1.0,3.0,-2.0,3.0,0.0,-3.0,-3.0,-7.0
3.565,-2.0,-3.0,-1.0,-2.0,-20.0,-11.0,3.0,-1.0,0.01983642578125,0.02752685546875,-0.3846435546875,-0.9224853515625,0.05908203125,-0.12158203125,0.9921875,6.75,10.0,-1.0625
3.57,-1.0,-2.0,-3.0,-6.0,-7.0,6.0,16.0,3.0
3.575,0.0,-1.0,-1.0,3.0,2.0,-2.0,-10.0,-1.0,0.0186767578125,0.02569580078125,-0.38421630859375,-0.9227294921875,0.10009765625,-0.05224609375,1.029296875,9.75,11.875,-2.6875
3.58,-2.0,-4.0,-5.0,-5.0,-9.0,-2.0,7.0,2.0,0.016845703125,0.02490234375,-0.38299560546875,-0.92327880859375,0.0849609375,0.02392578125,1.0634765625,5.8125,3.875,-7.4375
3.585
3.59,-1.0,-3.0,-2.0,-6.0,-2.0,4.0,-2.0,-2.0,0.01513671875,0.0267333984375,-0.3822021484375,-0.92364501953125,0.1455078125,0.05615234375,1.0234375,-2.4375,-5.875,-4.8125
3.595,-2.0,-1.0,-2.0,2.0,21.0,-12.0,-5.0,-5.0
3.6,0.01519775390625,0.02886962890625,-0.382568359375,-0.92340087890625,0.13671875,-0.01171875,1.005859375,-7.9375,-4.5,2.6875
3.605,-2.0,-6.0,-3.0,-6.0,-10.0,15.0,-1.0,2.0
3.61,0.0167236328125,0.030517578125,-0.383544921875,-0.92291259765625,0.03759765625,-0.06298828125,0.990234375,-10.875,-6.1875,6.5
3.615,0.0,-3.0,-1.0,-8.0,0.0,-6.0,13.0,2.0,0.019287109375,0.03216552734375,-0.38525390625,-0.92205810546875,0.0322265625,-0.0546875,1.01806640625,-17.3125,-4.1875,11.0625
3.62,-3.0,-1.0,-2.0,-2.0,-6.0,-16.0,-11.0,-1.0,0.021484375,0.03302001953125,-0.3873291015625,-0.921142578125,0.01513671875,-0.044921875,1.0068359375,-15.0,-2.0,13.3125
3.625,0.0,1.0,-2.0,-2.0,-9.0,-6.0,2.0,0.0,0.0244140625,0.0333251953125,-0.38946533203125,-0.920166015625,-0.00830078125,-0.03369140625,1.0,-18.5,0.625,13.5
3.63,0.0,0.0,-1.0,1.0,7.0,24.0,9.0,4.0
3.635,2.0,0.0,0.0,0.0,17.0,8.0,10.0,2.0,0.02801513671875,0.03387451171875,-0.3916015625,-0.91912841796875,-0.01611328125,-0.044921875,1.0078125,-22.3125,0.75,13.875
3.64,-2.0,-3.0,1.0,8.0,-9.0,-1.0,3.0,1.0
3.645,-3.0,-3.0,-5.0,-3.0,-13.0,1.0,-5.0,-4.0,0.031982421875,0.0350341796875,-0.3939208984375,-0.91796875,-0.0087890625,-0.0703125,1.015625,-24.625,-1.5625,15.25
3.65,-2.0,-1.0,-1.0,-7.0,-20.0,0.0,3.0,-2.0,0.03485107421875,0.03765869140625,-0.39617919921875,-0.91680908203125,0.00244140625,-0.09130859375,1.02392578125,-21.125,-10.6875,14.375
3.655,0.0,-1.0,0.0,-3.0,8.0,2.0,9.0,2.0
3.66,0.0355224609375,0.040771484375,-0.39764404296875,-0.916015625,0.08154296875,-0.1376953125,0.99169921875,-7.875,-12.875,9.0625
3.665,-2.0,0.0,1.0,-3.0,-3.0,-7.0,-10.0,-2.0
3.67,-3.0,-2.0,-4.0,-5.0,-4.0,-2.0,-5.0,-1.0,0.033935546875,0.041015625,-0.397705078125,-0.916015625,0.03759765625,-0.21630859375,0.94140625,16.6875,-5.5,-0.6875
3.675,-2.0,-1.0,0.0,2.0,31.0,6.0,5.0,2.0,0.03131103515625,0.03924560546875,-0.39703369140625,-0.91650390625,-0.06494140625,-0.095703125,1.0185546875,18.1875,-4.375,-5.6875
3.68,-2.0,-2.0,-2.0,-1.0,-5.0,-5.0,-6.0,-1.0
3.685,0.0,-2.0,-2.0,-3.0,-29.0,-16.0,-10.0,-5.0
3.69,0.0296630859375,0.03887939453125,-0.3961181640625,-0.91693115234375,-0.00146484375,-0.0048828125,1.0009765625,3.6875,-5.25,-6.0
3.695,1.0,-1.0,-1.0,-6.0,-3.0,-16.0,-6.0,-2.0
3.7,-2.0,-1.0,-3.0,-1.0,-2.0,-9.0,1.0,-1.0,0.03155517578125,0.0411376953125,-0.39459228515625,-0.91741943359375,0.03515625,-0.0693359375,0.9619140625,-16.875,-8.1875,-9.125
3.705,-3.0,-2.0,-1.0,-5.0,-4.0,-6.0,-14.0,-6.0,0.03515625,0.04461669921875,-0.39306640625,-0.91778564453125,0.044921875,-0.15087890625,0.994140625,-23.3125,-10.25,-8.9375
3.71,-3.0,-2.0,1.0,6.0,27.0,6.0,2.0,-1.0
3.715,2.0,-1.0,1.0,7.0,28.0,23.0,1.0,1.0
3.72,0.0,-1.0,-2.0,0.0,-3.0,-1.0,-1.0,-3.0,0.03662109375,0.0474853515625,-0.3919677734375,-0.91802978515625,0.07177734375,-0.1591796875,1.02099609375,-11.125,-10.875,-6.75
3.725,-1.0,-2.0,-3.0,0.0,-3.0,7.0,-1.0,-1.0
3.73,0.0357666015625,0.04925537109375,-0.39141845703125,-0.91827392578125,0.10107421875,-0.10888671875,0.9892578125,0.75,-8.1875,-3.875
3.735,-1.0,2.0,1.0,5.0,22.0,1.0,17.0,9.0,0.03460693359375,0.05084228515625,-0.3909912109375,-0.91839599609375,0.09033203125,-0.091796875,0.990234375,1.625,-9.3125,-2.75
time,channel_1,channel_2,channel_3,channel_4,channel_5,channel_6,channel_7,channel_8,orientation_x,orientation_y,orientation_z,orientation_w,acceleration_x,acceleration_y,acceleration_z,gyroscope_x,gyroscope_y,gyroscope_z
0.005,-2.0,-1.0,-4.0,2.0,2.0,1.0,0.0,2.0,-0.2149658203125,0.2364501953125,-0.57135009765625,0.75592041015625,-0.12353515625,-0.60791015625,0.80810546875,-1.1875,-0.9375,1.3125
0.01,0.0,0.0,9.0,-2.0,-1.0,-3.0,-2.0,-2.0,-0.2149658203125,0.23651123046875,-0.57135009765625,0.75592041015625,-0.12548828125,-0.61572265625,0.8076171875,-0.5,0.0625,0.25
0.015,-2.0,-5.0,-6.0,1.0,1.0,1.0,-1.0,-4.0
0.02,-1.0,4.0,0.0,2.0,1.0,-1.0,-2.0,0.0,-0.2149658203125,0.236572265625,-0.57135009765625,0.75592041015625,-0.12939453125,-0.60498046875,0.8056640625,0.9375,-0.4375,-0.1875
0.025,-3.0,0.0,-1.0,1.0,0.0,-1.0,-3.0,-2.0,-0.21502685546875,0.236328125,-0.571044921875,0.75616455078125,-0.12646484375,-0.6025390625,0.80810546875,-0.6875,-2.25,0.1875
0.03,2.0,1.0,0.0,1.0,-3.0,-1.0,1.0,1.0,-0.21527099609375,0.23614501953125,-0.5709228515625,0.7562255859375,-0.11572265625,-0.609375,0.810546875,-0.5625,-1.9375,-0.0625
0.035,-2.0,-9.0,-9.0,-2.0,-1.0,0.0,1.0,0.0
0.04,-2.0,2.0,-1.0,-3.0,-1.0,-3.0,-1.0,1.0,-0.21539306640625,0.2359619140625,-0.5709228515625,0.75628662109375,-0.11279296875,-0.6103515625,0.8056640625,0.5625,-0.5,-0.8125
0.045,-3.0,-1.0,-10.0,-4.0,-2.0,-2.0,0.0,-1.0
0.05,-0.21527099609375,0.23583984375,-0.5711669921875,0.75616455078125,-0.1171875,-0.59814453125,0.81494140625,0.5625,0.125,-1.3125
0.055,-4.0,-11.0,1.0,0.0,-1.0,0.0,-1.0,-4.0
0.06,2.0,-4.0,6.0,-2.0,-2.0,-1.0,-1.0,-1.0,-0.2152099609375,0.2357177734375,-0.5712890625,0.756103515625,-0.1162109375,-0.59619140625,0.8115234375,0.25,-0.375,-1.25
0.065,1.0,3.0,-2.0,0.0,-2.0,-1.0,0.0,0.0
0.07,-0.21539306640625,0.235595703125,-0.5714111328125,0.75604248046875,-0.1201171875,-0.59765625,0.80712890625,-0.875,-1.1875,-1.5625
0.075,-3.0,-8.0,5.0,1.0,-4.0,-1.0,-1.0,-1.0
0.08,-2.0,-3.0,3.0,6.0,2.0,2.0,0.0,-1.0
0.085,-0.2154541015625,0.23541259765625,-0.571533203125,0.7559814453125,-0.1240234375,-0.6044921875,0.81396484375,0.0625,-1.75,-1.6875
0.09,2.0,0.0,-1.0,2.0,0.0,-2.0,0.0,0.0
0.095,-2.0,-3.0,-2.0,-1.0,-1.0,-3.0,-2.0,-4.0,-0.21563720703125,0.235107421875,-0.57171630859375,0.75592041015625,-0.12451171875,-0.60693359375,0.8056640625,0.6875,-2.25,-1.9375
0.1,-3.0,-2.0,-4.0,-5.0,0.0,-2.0,-3.0,0.0
0.105,-0.21588134765625,0.2347412109375,-0.5718994140625,0.75579833984375,-0.11328125,-0.60546875,0.8076171875,0.25,-2.3125,-2.1875
0.11,2.0,2.0,-4.0,-1.0,1.0,-2.0,0.0,1.0
0.115
0.12,-4.0,-8.0,9.0,-4.0,-1.0,-1.0,-1.0,1.0,-0.21612548828125,0.23443603515625,-0.5721435546875,0.755615234375,-0.11474609375,-0.61083984375,0.810546875,0.4375,-2.0,-2.5
0.125,-3.0,-11.0,-26.0,-5.0,-1.0,0.0,-1.0,-1.0,-0.21630859375,0.23406982421875,-0.5723876953125,0.7554931640625,-0.11279296875,-0.59716796875,0.8115234375,-0.0625,-1.9375,-2.5625
0.13,1.0,6.0,0.0,-1.0,-1.0,1.0,-2.0,-2.0
0.135,1.0,-1.0,1.0,-1.0,0.0,1.0,0.0,1.0,-0.216796875,0.23388671875,-0.57257080078125,0.7552490234375,-0.1064453125,-0.607421875,0.8134765625,-1.625,-1.875,-2.5625
0.14
0.145,-5.0,7.0,9.0,2.0,-2.0,0.0,-2.0,-3.0
0.15,-0.21734619140625,0.23370361328125,-0.57269287109375,0.755126953125,-0.10595703125,-0.61572265625,0.81689453125,-1.4375,-2.125,-1.8125
0.155,-1.0,-4.0,-3.0,0.0,-1.0,-3.0,0.0,-2.0
0.16,0.0,1.0,2.0,-4.0,0.0,-3.0,-2.0,1.0,-0.21746826171875,0.23345947265625,-0.57281494140625,0.7550048828125,-0.1044921875,-0.611328125,0.8134765625,0.125,-1.1875,-1.1875
0.165,-0.21746826171875,0.23333740234375,-0.572998046875,0.75494384765625,-0.1123046875,-0.60986328125,0.82177734375,0.5,-0.625,-1.4375
0.17,1.0,1.0,-2.0,0.0,-2.0,-1.0,1.0,-3.0
0.175,-3.0,-9.0,7.0,-1.0,-2.0,0.0,-3.0,-5.0
0.18,-0.217529296875,0.233154296875,-0.57318115234375,0.75482177734375,-0.11376953125,-0.6123046875,0.818359375,0.3125,-0.9375,-2.0625
0.185,0.0,1.0,2.0,2.0,1.0,-2.0,0.0,0.0
0.19,-2.0,3.0,1.0,-2.0,-3.0,-3.0,-1.0,2.0
0.195,0.0,0.0,1.0,-1.0,-2.0,0.0,-2.0,-1.0,-0.21746826171875,0.2327880859375,-0.57342529296875,0.7547607421875,-0.11669921875,-0.609375,0.8193359375,1.3125,-1.6875,-2.0
0.2,-0.21746826171875,0.23236083984375,-0.573486328125,0.7548828125,-0.11962890625,-0.6015625,0.81103515625,1.5,-2.6875,-1.25
0.205,-6.0,-13.0,7.0,0.0,-2.0,-2.0,-2.0,-1.0
0.21,-3.0,0.0,2.0,1.0,2.0,1.0,1.0,0.0
0.215,-0.2176513671875,0.2320556640625,-0.573486328125,0.75494384765625,-0.11181640625,-0.60498046875,0.8154296875,0.125,-2.5625,-0.8125
0.22,-1.0,1.0,1.0,0.0,-4.0,-2.0,-3.0,-1.0
0.225,1.0,1.0,3.0,2.0,-2.0,-1.0,-1.0,-2.0
0.23,-1.0,1.0,-3.0,2.0,2.0,-1.0,-1.0,-2.0,-0.21795654296875,0.23199462890625,-0.57342529296875,0.7548828125,-0.10986328125,-0.61474609375,0.81689453125,-1.0625,-1.75,-0.625
0.235
0.24,1.0,-2.0,-13.0,2.0,2.0,3.0,-1.0,4.0,-0.21795654296875,0.2320556640625,-0.57342529296875,0.7548828125,-0.10791015625,-0.61962890625,0.81396484375,0.5,-0.6875,-0.8125
0.245
0.25,-1.0,-1.0,-4.0,-2.0,-1.0,-2.0,0.0,-1.0,-0.21771240234375,0.23175048828125,-0.57366943359375,0.7548828125,-0.10546875,-0.6123046875,0.8173828125,2.4375,-0.3125,-1.25
0.255
0.26,0.0,-1.0,4.0,-2.0,-3.0,-1.0,-4.0,-1.0,-0.21746826171875,0.23150634765625,-0.5738525390625,0.75482177734375,-0.1015625,-0.59814453125,0.8095703125,1.625,0.125,-0.9375
0.265,-2.0,6.0,-1.0,0.0,1.0,0.0,0.0,-4.0
0.27,-0.21746826171875,0.23150634765625,-0.5738525390625,0.75482177734375,-0.10302734375,-0.599609375,0.81640625,0.0,0.5,-0.0625
0.275,1.0,-5.0,-2.0,5.0,-2.0,0.0,-1.0,2.0
0.28,-0.21759033203125,0.23175048828125,-0.57379150390625,0.7547607421875,-0.10693359375,-0.6123046875,0.8095703125,-1.0625,0.3125,-0.1875
0.285,-2.0,-3.0,-15.0,-7.0,-4.0,-3.0,0.0,0.0
0.29,0.0,-7.0,-7.0,9.0,5.0,1.0,1.0,-1.0,-0.21759033203125,0.23175048828125,-0.57379150390625,0.7547607421875,-0.11328125,-0.61474609375,0.8095703125,-0.4375,-0.625,-0.0625
0.295,-1.0,-3.0,-3.0,-5.0,-4.0,-1.0,-2.0,-1.0
0.3,-0.217529296875,0.23175048828125,-0.57379150390625,0.75482177734375,-0.11083984375,-0.60888671875,0.80615234375,1.0,-0.5625,-0.375
0.305
0.31,-4.0,-4.0,-13.0,-9.0,-4.0,0.0,-1.0,-4.0
0.315
0.32,-2.0,-6.0,5.0,-3.0,-1.0,-4.0,-1.0,0.0,-0.21734619140625,0.231689453125,-0.57391357421875,0.7547607421875,-0.10546875,-0.6103515625,0.81396484375,1.0,0.375,-0.3125
0.325,-1.0,-4.0,-5.0,-3.0,-2.0,-3.0,-2.0,-1.0,-0.21734619140625,0.23175048828125,-0.57391357421875,0.7547607421875,-0.10986328125,-0.6005859375,0.80859375,0.375,0.5,-0.3125
0.33,1.0,2.0,-2.0,-3.0,0.0,1.0,2.0,0.0
0.335,-0.21734619140625,0.23175048828125,-0.5738525390625,0.75482177734375,-0.115234375,-0.6044921875,0.81103515625,0.4375,0.125,-0.3125
0.34,0.0,2.0,-13.0,-2.0,-4.0,-2.0,-4.0,-1.0
0.345,-0.2171630859375,0.23162841796875,-0.57379150390625,0.75494384765625,-0.11474609375,-0.61083984375,0.8134765625,1.4375,-1.1875,0.25
0.35,0.0,1.0,-3.0,2.0,4.0,-2.0,-1.0,-2.0
0.355,0.0,6.0,7.0,-6.0,-1.0,-3.0,-1.0,-1.0
0.36,-2.0,-1.0,-1.0,0.0,-3.0,1.0,-1.0,-1.0,-0.21722412109375,0.2313232421875,-0.57379150390625,0.7550048828125,-0.1015625,-0.6162109375,0.80029296875,1.875,-1.375,-0.0625
0.365,-1.0,-4.0,3.0,-2.0,-2.0,-3.0,-1.0,-2.0
0.37,-4.0,1.0,-8.0,-3.0,-1.0,0.0,-1.0,-5.0,-0.21697998046875,0.23126220703125,-0.57391357421875,0.7550048828125,-0.10400390625,-0.6103515625,0.8056640625,2.0625,0.1875,-0.3125
0.375,-4.0,-11.0,12.0,-1.0,0.0,-1.0,-2.0,6.0
0.38,-0.21697998046875,0.23126220703125,-0.57391357421875,0.7550048828125,-0.11474609375,-0.59423828125,0.80859375,0.875,0.875,-0.9375
0.385,0.0,4.0,-18.0,-8.0,-2.0,-3.0,-1.0,1.0
0.39,6.0,-2.0,5.0,13.0,2.0,1.0,2.0,1.0,-0.21697998046875,0.23126220703125,-0.57391357421875,0.7550048828125,-0.10693359375,-0.603515625,0.80322265625,0.3125,0.75,-0.6875
0.395,-5.0,-3.0,-3.0,-2.0,-3.0,-2.0,-2.0,1.0
0.4,-0.216796875,0.2313232421875,-0.57415771484375,0.7548828125,-0.099609375,-0.603515625,0.8125,0.625,1.1875,-1.375
0.405,2.0,7.0,2.0,-1.0,0.0,-2.0,0.0,0.0
0.41,1.0,13.0,54.0,1.0,-1.0,-1.0,1.0,0.0
0.415,-0.21673583984375,0.2314453125,-0.5743408203125,0.75469970703125,-0.109375,-0.6015625,0.82080078125,-0.375,0.9375,-1.1875
0.42
0.425,1.0,7.0,-20.0,3.0,1.0,0.0,0.0,-2.0
0.43,-5.0,-25.0,-4.0,11.0,5.0,2.0,-2.0,-18.0,-0.21685791015625,0.23150634765625,-0.57415771484375,0.7547607421875,-0.11328125,-0.62255859375,0.80810546875,0.0625,-1.1875,0.25
0.435,-0.216552734375,0.2310791015625,-0.57421875,0.75494384765625,-0.11279296875,-0.62109375,0.8154296875,4.125,-1.5,0.0625
0.44,6.0,-1.0,-18.0,-6.0,-3.0,-1.0,-1.0,6.0
0.445,-10.0,-15.0,-53.0,-11.0,-3.0,-3.0,1.0,-6.0
0.45,-2.0,17.0,18.0,7.0,2.0,-1.0,2.0,1.0,-0.2156982421875,0.23028564453125,-0.57452392578125,0.7552490234375,-0.1044921875,-0.62255859375,0.818359375,8.0,-0.9375,-0.375
0.455,25.0,54.0,30.0,3.0,-1.0,-2.0,-8.0,13.0,-0.2144775390625,0.229248046875,-0.57525634765625,0.75537109375,-0.08984375,-0.59130859375,0.8212890625,9.25,0.9375,-1.875
0.46,2.0,22.0,11.0,13.0,7.0,3.0,2.0,9.0,-0.212646484375,0.2276611328125,-0.5760498046875,0.75567626953125,-0.10107421875,-0.62158203125,0.8193359375,16.0,-0.25,-1.8125
0.465,4.0,-12.0,-35.0,-20.0,-9.0,-3.0,-3.0,11.0
0.47,4.0,9.0,10.0,-2.0,1.0,1.0,1.0,-12.0
0.475
0.48,16.0,86.0,74.0,20.0,10.0,4.0,-4.0,17.0,-0.20989990234375,0.22613525390625,-0.57720947265625,0.75604248046875,-0.0947265625,-0.59814453125,0.84912109375,18.3125,3.6875,-1.875
0.485
0.49,-7.0,-57.0,37.0,-24.0,-10.0,-5.0,-2.0,0.0,-0.20745849609375,0.22503662109375,-0.57806396484375,0.75640869140625,-0.1005859375,-0.6142578125,0.857421875,16.25,4.25,-0.3125
0.495,-10.0,-20.0,17.0,-9.0,-9.0,-5.0,-3.0,-5.0,-0.2047119140625,0.224365234375,-0.5789794921875,0.75665283203125,-0.09619140625,-0.56396484375,0.81298828125,15.125,7.4375,-0.5
0.5,2.0,26.0,19.0,1.0,-3.0,-2.0,-2.0,-8.0
0.505,-0.20147705078125,0.2236328125,-0.57989501953125,0.757080078125,-0.12939453125,-0.53271484375,0.85107421875,14.9375,6.75,-0.375
0.51,25.0,42.0,-54.0,22.0,9.0,-1.0,-23.0,-6.0
0.515,-19.0,-122.0,-111.0,-35.0,-15.0,-3.0,30.0,-16.0
0.52,-0.20001220703125,0.22369384765625,-0.58026123046875,0.75714111328125,-0.126953125,-0.53955078125,0.87451171875,3.1875,4.875,-0.375
0.525,1.0,83.0,46.0,37.0,13.0,2.0,-18.0,-39.0
0.53,-0.19854736328125,0.2236328125,-0.58099365234375,0.7569580078125,-0.09716796875,-0.5556640625,0.861328125,5.3125,6.5625,-1.5
0.535,-33.0,12.0,62.0,-40.0,-28.0,-15.0,-2.0,6.0
0.54,-21.0,5.0,29.0,-12.0,-10.0,-12.0,-25.0,-16.0
0.545,-0.19696044921875,0.22430419921875,-0.5816650390625,0.75665283203125,-0.126953125,-0.61376953125,0.837890625,7.6875,8.375,-1.5625
0.55,-5.0,-45.0,27.0,34.0,12.0,8.0,15.0,-2.0
0.555,5.0,15.0,2.0,-5.0,-2.0,0.0,4.0,38.0
0.56,-0.195556640625,0.22503662109375,-0.5816650390625,0.75677490234375,-0.1357421875,-0.60400390625,0.83251953125,6.125,6.5625,2.5
0.565,5.0,-41.0,-9.0,17.0,7.0,-22.0,-84.0,0.0
0.57,-5.0,-42.0,-112.0,-34.0,-11.0,12.0,34.0,56.0,-0.1944580078125,0.225830078125,-0.5816650390625,0.7568359375,-0.1181640625,-0.60205078125,0.83740234375,3.9375,6.9375,2.75
0.575,-27.0,-31.0,-54.0,-48.0,-27.0,-7.0,24.0,-18.0
0.58,-9.0,22.0,-6.0,14.0,12.0,-3.0,-34.0,-19.0
0.585,29.0,85.0,88.0,24.0,3.0,-2.0,11.0,19.0,-0.1944580078125,0.2279052734375,-0.58172607421875,0.7562255859375,-0.1298828125,-0.59375,0.81298828125,-5.125,9.125,-0.125
0.59,25.0,75.0,93.0,15.0,2.0,-13.0,-46.0,-11.0
0.595,-0.1922607421875,0.228271484375,-0.582275390625,0.7562255859375,-0.154296875,-0.58251953125,0.8232421875,10.4375,7.5625,-0.1875
0.6,-9.0,-63.0,-10.0,4.0,-3.0,-2.0,20.0,5.0
0.605,-0.19000244140625,0.227783203125,-0.58258056640625,0.7567138671875,-0.14404296875,-0.552734375,0.79296875,13.5625,3.6875,1.9375
0.61,11.0,-16.0,-38.0,20.0,7.0,16.0,29.0,3.0
0.615,49.0,81.0,-64.0,5.0,13.0,16.0,46.0,-3.0,-0.1888427734375,0.22808837890625,-0.58270263671875,0.75677490234375,-0.10498046875,-0.5078125,0.81591796875,2.0625,6.375,1.75
0.62,1.0,82.0,48.0,24.0,4.0,-10.0,-17.0,-27.0
0.625,-0.18890380859375,0.2298583984375,-0.5828857421875,0.756103515625,-0.12548828125,-0.52978515625,0.83837890625,-8.6875,8.625,-1.25
0.63,-16.0,-42.0,-68.0,-21.0,-6.0,9.0,81.0,28.0
0.635,13.0,35.0,42.0,56.0,16.0,-15.0,-85.0,17.0,-0.18914794921875,0.23175048828125,-0.582763671875,0.75555419921875,-0.14794921875,-0.5751953125,0.83935546875,-8.0625,7.0625,-0.375
0.64,-8.0,84.0,-9.0,-11.0,8.0,40.0,77.0,-10.0
0.645,27.0,50.0,-36.0,-26.0,-11.0,7.0,7.0,8.0
0.65,-0.1890869140625,0.23248291015625,-0.58294677734375,0.7552490234375,-0.130859375,-0.57958984375,0.83154296875,-1.4375,4.0,-0.625
0.655,39.0,54.0,121.0,71.0,32.0,-7.0,-70.0,45.0
0.66,-76.0,-79.0,-77.0,-102.0,-35.0,-27.0,-55.0,-38.0
0.665,-0.18829345703125,0.23272705078125,-0.5833740234375,0.7550048828125,-0.12890625,-0.5458984375,0.82177734375,2.375,4.75,-1.25
0.67,-57.0,-76.0,-2.0,-17.0,-11.0,-24.0,-46.0,-85.0
0.675,21.0,-11.0,-22.0,27.0,10.0,6.0,6.0,-25.0
0.68,21.0,-33.0,-86.0,0.0,12.0,32.0,73.0,14.0,-0.1885986328125,0.2335205078125,-0.583251953125,0.75482177734375,-0.138671875,-0.56201171875,0.81884765625,-4.4375,2.1875,0.0625
0.685
0.69,-27.0,22.0,-74.0,28.0,15.0,-12.0,-63.0,-46.0,-0.18902587890625,0.2342529296875,-0.5831298828125,0.75457763671875,-0.12646484375,-0.57763671875,0.8232421875,-3.5625,2.3125,0.4375
0.695,17.0,-69.0,-79.0,-52.0,1.0,9.0,38.0,60.0,-0.1885986328125,0.234619140625,-0.583251953125,0.75445556640625,-0.1435546875,-0.5771484375,0.828125,1.3125,2.75,-0.25
0.7
0.705,12.0,42.0,29.0,35.0,9.0,-1.0,-35.0,22.0,-0.1883544921875,0.234619140625,-0.5830078125,0.75469970703125,-0.140625,-0.57080078125,0.814453125,1.6875,-0.0625,1.9375
0.71,2.0,-78.0,50.0,18.0,13.0,24.0,109.0,-4.0
0.715,15.0,90.0,127.0,14.0,-9.0,10.0,48.0,-12.0
0.72,-0.187744140625,0.23443603515625,-0.5831298828125,0.75482177734375,-0.130859375,-0.56494140625,0.833984375,3.25,1.625,0.75
0.725,57.0,122.0,30.0,7.0,7.0,4.0,-12.0,-9.0
0.73,10.0,6.0,-15.0,2.0,-4.0,-8.0,-6.0,22.0
0.735,-0.18768310546875,0.23443603515625,-0.5831298828125,0.75482177734375,-0.14306640625,-0.54150390625,0.8291015625,0.6875,-0.625,0.75
0.74,-65.0,-79.0,-84.0,-58.0,-18.0,-13.0,-35.0,0.0
0.745,57.0,32.0,16.0,55.0,15.0,13.0,66.0,27.0,-0.18829345703125,0.23486328125,-0.58221435546875,0.7552490234375,-0.14501953125,-0.58349609375,0.8212890625,-3.5625,-2.25,4.75
0.75,-10.0,43.0,127.0,68.0,13.0,-17.0,-73.0,9.0,-0.18865966796875,0.2353515625,-0.58172607421875,0.75537109375,-0.140625,-0.6181640625,0.8359375,-0.8125,0.1875,2.9375
0.755,23.0,46.0,-105.0,-27.0,-6.0,12.0,73.0,89.0
0.76,-18.0,80.0,83.0,15.0,-2.0,-19.0,-94.0,-48.0
0.765,23.0,60.0,-41.0,0.0,15.0,-1.0,-111.0,49.0,-0.1875,0.2352294921875,-0.5819091796875,0.75555419921875,-0.14599609375,-0.5693359375,0.83544921875,5.75,2.75,1.0
0.77,8.0,-48.0,-43.0,-14.0,-8.0,23.0,78.0,-21.0
0.775,30.0,38.0,13.0,20.0,5.0,-4.0,-14.0,-37.0,-0.18701171875,0.23565673828125,-0.58160400390625,0.75579833984375,-0.166015625,-0.52734375,0.8291015625,-1.75,1.375,1.875
0.78,-0.18743896484375,0.23651123046875,-0.5810546875,0.755859375,-0.1611328125,-0.57373046875,0.8212890625,-4.625,0.5,2.125
0.785,-44.0,-94.0,-97.0,-23.0,-3.0,-15.0,-44.0,-42.0
0.79,-4.0,-102.0,34.0,-20.0,-6.0,34.0,127.0,19.0
0.795,-0.18829345703125,0.23736572265625,-0.58050537109375,0.75579833984375,-0.15576171875,-0.60546875,0.81396484375,-4.5625,-0.625,1.9375
0.8,62.0,58.0,71.0,73.0,22.0,-10.0,-46.0,42.0
0.805,-20.0,0.0,60.0,23.0,15.0,25.0,86.0,27.0,-0.188232421875,0.23736572265625,-0.58050537109375,0.75579833984375,-0.1552734375,-0.57080078125,0.84521484375,0.75,0.0625,0.5
0.81,-12.0,31.0,18.0,17.0,1.0,-17.0,-4.0,11.0
0.815,-0.18743896484375,0.23724365234375,-0.5809326171875,0.7557373046875,-0.1611328125,-0.5439453125,0.84423828125,2.4375,1.875,-2.1875
0.82,-22.0,49.0,71.0,-11.0,-17.0,-11.0,-4.0,1.0
0.825,-5.0,-105.0,-128.0,-26.0,-13.0,-16.0,-24.0,2.0,-0.1875,0.2379150390625,-0.5809326171875,0.7554931640625,-0.16552734375,-0.5546875,0.84521484375,-4.25,2.0,-1.25
0.83
0.835,-2.0,17.0,79.0,12.0,-3.0,-6.0,39.0,36.0
0.84,11.0,37.0,117.0,-10.0,-11.0,-11.0,-41.0,-12.0,-0.18817138671875,0.2384033203125,-0.58050537109375,0.7554931640625,-0.169921875,-0.59814453125,0.83154296875,-3.9375,-2.0625,0.75
0.845,-0.18743896484375,0.23748779296875,-0.58087158203125,0.75567626953125,-0.13818359375,-0.5654296875,0.83935546875,6.625,-1.0,-0.5625
0.85,2.0,48.0,10.0,8.0,13.0,-4.0,-38.0,44.0
0.855,-16.0,20.0,-69.0,-71.0,-16.0,2.0,27.0,-16.0
0.86,16.0,-2.0,6.0,14.0,-14.0,0.0,18.0,-11.0,-0.1861572265625,0.2371826171875,-0.581787109375,0.75537109375,-0.140625,-0.5419921875,0.82568359375,6.125,4.375,-3.9375
0.865,-1.0,26.0,2.0,10.0,17.0,-4.0,-36.0,16.0,-0.18621826171875,0.23779296875,-0.5821533203125,0.7548828125,-0.13623046875,-0.53125,0.8447265625,-4.9375,4.0,-2.5625
0.87,18.0,41.0,28.0,23.0,6.0,13.0,10.0,-22.0
0.875,-3.0,-29.0,-34.0,-11.0,12.0,1.0,-1.0,16.0
0.88,-0.18634033203125,0.23773193359375,-0.58245849609375,0.754638671875,-0.1298828125,-0.55859375,0.84765625,-1.375,1.25,-2.0
0.885,17.0,52.0,47.0,53.0,3.0,11.0,9.0,-6.0
0.89,-25.0,58.0,43.0,36.0,5.0,-4.0,0.0,-13.0
0.895,-0.18597412109375,0.23736572265625,-0.5826416015625,0.75469970703125,-0.12109375,-0.55810546875,0.85546875,1.4375,1.0,0.375
0.9,47.0,-51.0,-8.0,-12.0,-10.0,5.0,17.0,35.0
0.905,13.0,6.0,-4.0,-11.0,3.0,-2.0,-34.0,-27.0,-0.187255859375,0.23895263671875,-0.58111572265625,0.75506591796875,-0.185546875,-0.58935546875,0.7744140625,-9.25,-2.4375,6.1875
0.91,-9.0,1.0,34.0,38.0,19.0,-1.0,-25.0,-22.0
0.915,15.0,-47.0,1.0,5.0,-5.0,8.0,33.0,40.0
0.92,-0.189208984375,0.240478515625,-0.5804443359375,0.75457763671875,-0.1591796875,-0.62451171875,0.81982421875,-11.8125,-0.6875,0.25
0.925,2.0,-11.0,-36.0,-28.0,-3.0,0.0,-3.0,-8.0
0.93,2.0,-2.0,-8.0,2.0,-4.0,0.0,-1.0,4.0
0.935,-0.1912841796875,0.2415771484375,-0.57977294921875,0.7542724609375,-0.13623046875,-0.67529296875,0.810546875,-7.8125,-2.0625,1.375
0.94,-3.0,-15.0,-18.0,-11.0,-6.0,0.0,7.0,-2.0
0.945,-10.0,34.0,0.0,-2.0,4.0,-7.0,-12.0,-7.0
0.95,-5.0,25.0,-8.0,0.0,-3.0,0.0,-21.0,-6.0,-0.19232177734375,0.2415771484375,-0.57861328125,0.7548828125,-0.1533203125,-0.6259765625,0.7978515625,-2.0,-6.125,5.6875
0.955,3.0,-60.0,-27.0,-11.0,-9.0,1.0,42.0,6.0
0.96,-0.1923828125,0.2410888671875,-0.577392578125,0.7559814453125,-0.162109375,-0.64208984375,0.8369140625,3.875,-6.0,8.375
0.965,-36.0,-46.0,-21.0,1.0,9.0,-2.0,-7.0,-23.0
0.97,11.0,30.0,45.0,-10.0,-9.0,-6.0,-11.0,2.0
0.975
0.98,5.0,1.0,-50.0,-20.0,5.0,2.0,-6.0,-4.0,-0.19000244140625,0.23919677734375,-0.57763671875,0.75701904296875,-0.17431640625,-0.56103515625,0.8408203125,16.75,-3.1875,2.3125
0.985,-10.0,5.0,-70.0,-21.0,-7.0,0.0,-4.0,-7.0,-0.18841552734375,0.2381591796875,-0.57830810546875,0.7572021484375,-0.189453125,-0.5400390625,0.83203125,9.5625,-1.4375,-3.5
0.99,19.0,29.0,-14.0,-17.0,-7.0,-3.0,8.0,16.0
0.995,19.0,1.0,10.0,14.0,3.0,1.0,-1.0,10.0
1.0,-0.18902587890625,0.23773193359375,-0.57757568359375,0.7576904296875,-0.171875,-0.57763671875,0.80615234375,-0.5,-7.1875,2.625
1.005,6.0,14.0,8.0,0.0,-2.0,-2.0,8.0,-3.0
1.01,-8.0,17.0,17.0,7.0,5.0,-2.0,-8.0,2.0
1.015,-0.19012451171875,0.23681640625,-0.576171875,0.7587890625,-0.134765625,-0.6396484375,0.80615234375,2.375,-10.125,8.0625
1.02,-16.0,-13.0,21.0,2.0,-7.0,2.0,6.0,-14.0
1.025,-6.0,0.0,3.0,12.0,3.0,-19.0,-26.0,-20.0
1.03,-9.0,-14.0,14.0,3.0,3.0,17.0,18.0,15.0,-0.18896484375,0.2347412109375,-0.57586669921875,0.75994873046875,-0.125,-0.5595703125,0.8193359375,12.6875,-6.5,4.9375
1.035,8.0,0.0,2.0,7.0,-1.0,5.0,5.0,7.0
1.04,-0.187255859375,0.23248291015625,-0.57666015625,0.760498046875,-0.1484375,-0.4892578125,0.8359375,12.3125,-4.625,-2.875
1.045,-9.0,-23.0,-3.0,9.0,0.0,-8.0,-11.0,-13.0
1.05,7.0,43.0,27.0,22.0,5.0,-1.0,0.0,2.0
1.055,-0.18768310546875,0.23150634765625,-0.57781982421875,0.759765625,-0.134765625,-0.4609375,0.84375,-4.0625,-3.3125,-9.875
1.06,7.0,11.0,6.0,3.0,3.0,0.0,-1.0,-1.0
1.065,9.0,4.0,11.0,1.0,-5.0,-5.0,-3.0,-1.0
1.07,-5.0,-38.0,-13.0,9.0,0.0,3.0,2.0,-1.0,-0.190673828125,0.2325439453125,-0.5775146484375,0.7589111328125,-0.1376953125,-0.57470703125,0.833984375,-17.5625,-4.625,-4.375
1.075,-1.0,4.0,14.0,-7.0,-5.0,0.0,4.0,0.0
1.08
1.085,-30.0,-52.0,-5.0,-9.0,-2.0,-8.0,-7.0,-8.0,-0.1923828125,0.232666015625,-0.5767822265625,0.759033203125,-0.119140625,-0.65087890625,0.84326171875,-4.625,-5.25,2.6875
1.09,4.0,14.0,-10.0,-2.0,-1.0,8.0,4.0,7.0
1.095,-30.0,-2.0,1.0,-2.0,-2.0,-6.0,-3.0,-5.0,-0.19232177734375,0.231689453125,-0.57684326171875,0.75933837890625,-0.12939453125,-0.6015625,0.82861328125,6.0,-4.375,0.25
1.1,1.0,-19.0,-10.0,-6.0,3.0,2.0,1.0,5.0
1.105,19.0,7.0,-2.0,12.0,13.0,3.0,3.0,7.0,-0.19146728515625,0.23028564453125,-0.577392578125,0.759521484375,-0.138671875,-0.5576171875,0.828125,9.0,-3.3125,-2.5625
1.11,-20.0,-2.0,-7.0,-2.0,-3.0,-1.0,-4.0,-3.0
1.115,-0.19085693359375,0.2288818359375,-0.5780029296875,0.7596435546875,-0.13720703125,-0.5078125,0.81884765625,5.6875,-4.4375,-4.0
1.12,11.0,19.0,2.0,-16.0,-6.0,-3.0,-3.0,0.0
1.125,-9.0,-28.0,-1.0,2.0,4.0,4.0,-2.0,-4.0
1.13,-1.0,-16.0,-7.0,-10.0,-10.0,-6.0,-3.0,-2.0,-0.19256591796875,0.22869873046875,-0.5777587890625,0.75946044921875,-0.1337890625,-0.54443359375,0.80517578125,-7.375,-7.0625,-2.5
1.135,7.0,3.0,-7.0,-7.0,-8.0,-4.0,-3.0,-2.0
1.14,-0.1953125,0.22894287109375,-0.57708740234375,0.75921630859375,-0.1181640625,-0.587890625,0.82275390625,-12.875,-8.3125,-0.75
1.145
1.15,-11.0,-22.0,11.0,8.0,2.0,-3.0,0.0,-3.0,-0.1976318359375,0.2288818359375,-0.57666015625,0.75897216796875,-0.12353515625,-0.61083984375,0.830078125,-8.625,-8.125,-1.9375
1.155,-4.0,-20.0,-7.0,-1.0,-2.0,1.0,-2.0,-1.0
1.16,-0.19891357421875,0.228271484375,-0.5765380859375,0.7589111328125,-0.13818359375,-0.59619140625,0.81787109375,-2.1875,-8.125,-2.6875
1.165
1.17,0.0,2.0,3.0,-1.0,0.0,-1.0,1.0,1.0,-0.1995849609375,0.22723388671875,-0.57666015625,0.7589111328125,-0.1298828125,-0.5693359375,0.8271484375,0.5,-7.375,-3.0625
1.175,14.0,4.0,2.0,-8.0,-2.0,-4.0,-1.0,2.0
1.18,0.0,25.0,-3.0,-4.0,-6.0,-2.0,-4.0,-4.0,-0.2005615234375,0.22650146484375,-0.5770263671875,0.75860595703125,-0.12060546875,-0.54443359375,0.8369140625,-3.5625,-5.8125,-5.25
1.185,4.0,-6.0,-2.0,7.0,7.0,2.0,1.0,-2.0
1.19,5.0,26.0,-22.0,-8.0,-4.0,-5.0,0.0,-1.0
1.195,-0.20220947265625,0.22625732421875,-0.577392578125,0.75799560546875,-0.10888671875,-0.5546875,0.82958984375,-8.125,-5.375,-6.3125
1.2,-3.0,7.0,-2.0,1.0,1.0,1.0,0.0,-5.0
1.205,2.0,3.0,-3.0,-5.0,-2.0,-5.0,0.0,7.0
1.21,-0.20416259765625,0.22613525390625,-0.57763671875,0.75732421875,-0.09716796875,-0.580078125,0.83740234375,-8.875,-5.0625,-5.5
1.215
1.22,10.0,-9.0,-5.0,2.0,-1.0,4.0,0.0,-7.0,-0.205810546875,0.22607421875,-0.57781982421875,0.7567138671875,-0.10107421875,-0.603515625,0.83740234375,-6.75,-4.125,-4.5625
1.225,-1.0,-26.0,-5.0,6.0,6.0,7.0,1.0,1.0
1.23
1.235,-2.0,9.0,-4.0,-5.0,-1.0,1.0,-1.0,1.0,-0.20635986328125,0.2252197265625,-0.5782470703125,0.7564697265625,-0.10546875,-0.58642578125,0.84033203125,0.3125,-4.9375,-4.5625
1.24,-7.0,-33.0,1.0,-1.0,-3.0,-2.0,-4.0,0.0
1.245,-0.20684814453125,0.224365234375,-0.578857421875,0.75616455078125,-0.109375,-0.5625,0.83056640625,-0.0625,-4.5,-5.8125
1.25,-7.0,36.0,2.0,4.0,3.0,4.0,-1.0,-1.0
1.255,7.0,7.0,11.0,1.0,1.0,-2.0,-1.0,0.0,-0.2080078125,0.22406005859375,-0.57928466796875,0.755615234375,-0.1044921875,-0.57568359375,0.84375,-5.375,-4.1875,-5.8125
1.26,-6.0,-7.0,-25.0,-13.0,-7.0,-7.0,-1.0,2.0
1.265,1.0,13.0,-2.0,-1.0,-1.0,-1.0,0.0,0.0
1.27,-0.20965576171875,0.22412109375,-0.579345703125,0.75506591796875,-0.0986328125,-0.61279296875,0.82763671875,-6.625,-4.5,-3.875
1.275,6.0,3.0,18.0,-1.0,-3.0,1.0,-1.0,-2.0
1.28,-2.0,-17.0,-6.0,-4.0,0.0,-5.0,-4.0,-1.0
1.285,-0.2105712890625,0.2236328125,-0.5794677734375,0.7548828125,-0.10107421875,-0.61328125,0.837890625,-1.4375,-4.9375,-3.25
1.29,-6.0,-12.0,-7.0,-1.0,-4.0,2.0,3.0,0.0
1.295,0.0,6.0,-2.0,0.0,0.0,-4.0,-2.0,7.0,-0.21099853515625,0.2230224609375,-0.579833984375,0.75469970703125,-0.09619140625,-0.59228515625,0.82861328125,0.6875,-3.6875,-3.3125
1.3,-11.0,-35.0,-8.0,-3.0,-2.0,4.0,0.0,-5.0
1.305,-11.0,-5.0,6.0,4.0,3.0,4.0,2.0,-6.0,-0.21136474609375,0.2225341796875,-0.58013916015625,0.75445556640625,-0.09326171875,-0.58544921875,0.83349609375,-0.5625,-2.6875,-3.25
1.31,0.0,7.0,10.0,-7.0,-5.0,-3.0,-1.0,-7.0
1.315,-0.21148681640625,0.22210693359375,-0.58050537109375,0.7542724609375,-0.099609375,-0.58837890625,0.8388671875,0.75,-2.1875,-3.5
1.32,2.0,-4.0,5.0,1.0,1.0,-1.0,-1.0,-2.0
1.325,5.0,11.0,-35.0,-3.0,1.0,5.0,0.0,3.0,-0.21197509765625,0.22174072265625,-0.58074951171875,0.75408935546875,-0.09619140625,-0.59130859375,0.82275390625,-0.5,-3.0,-2.9375
1.33,-11.0,-30.0,-11.0,-8.0,-4.0,-7.0,-6.0,-7.0
1.335,-4.0,-8.0,9.0,-1.0,0.0,-4.0,0.0,-3.0
1.34
1.345,-4.0,-13.0,2.0,3.0,4.0,5.0,1.0,-1.0,-0.2122802734375,0.22137451171875,-0.58074951171875,0.75408935546875,-0.09619140625,-0.5859375,0.81787109375,0.0625,-3.125,-1.25
1.35,-0.21270751953125,0.22119140625,-0.58074951171875,0.7540283203125,-0.09423828125,-0.5888671875,0.82470703125,-1.3125,-2.375,-1.0
1.355,5.0,21.0,-11.0,-2.0,0.0,-3.0,-2.0,-2.0
1.36,6.0,11.0,15.0,4.0,1.0,2.0,6.0,5.0,-0.21337890625,0.2213134765625,-0.58087158203125,0.75372314453125,-0.08544921875,-0.5888671875,0.833984375,-4.0625,-0.875,-2.1875
1.365,1.0,13.0,5.0,-1.0,-3.0,1.0,0.0,-1.0,-0.2138671875,0.22149658203125,-0.5811767578125,0.7532958984375,-0.0859375,-0.6005859375,0.83251953125,-2.5625,0.1875,-2.9375
1.37,2.0,24.0,4.0,-3.0,-1.0,-1.0,-2.0,3.0
1.375,0.0,-5.0,8.0,-7.0,-2.0,1.0,-2.0,-1.0,-0.2139892578125,0.22161865234375,-0.58154296875,0.7529296875,-0.09130859375,-0.5986328125,0.8349609375,-1.0625,0.5625,-3.25
1.38,-1.0,-21.0,-20.0,0.0,2.0,2.0,-1.0,-4.0,-0.21380615234375,0.221435546875,-0.58184814453125,0.75274658203125,-0.0927734375,-0.5888671875,0.83251953125,1.1875,0.0,-2.25
1.385,-7.0,-4.0,-1.0,0.0,1.0,-1.0,-1.0,-7.0,-0.21392822265625,0.22119140625,-0.58197021484375,0.75274658203125,-0.09521484375,-0.59375,0.82470703125,0.6875,-1.625,-1.25
1.39,6.0,-15.0,-4.0,5.0,0.0,-3.0,-2.0,1.0
1.395,-2.0,-3.0,-5.0,-4.0,-1.0,2.0,2.0,5.0,-0.21405029296875,0.22088623046875,-0.58209228515625,0.752685546875,-0.0849609375,-0.58544921875,0.82275390625,0.375,-1.5625,-1.125
1.4,0.0,1.0,5.0,5.0,1.0,-1.0,2.0,1.0,-0.214111328125,0.22076416015625,-0.582275390625,0.7525634765625,-0.08837890625,-0.58740234375,0.82666015625,-0.125,-0.8125,-1.625
1.405,1.0,41.0,-4.0,2.0,-1.0,-3.0,0.0,-16.0
1.41,-4.0,-12.0,-4.0,-6.0,-8.0,1.0,-3.0,-5.0
1.415,-0.214111328125,0.220703125,-0.58251953125,0.75238037109375,-0.0927734375,-0.5927734375,0.8349609375,-0.0625,-0.0625,-2.375
1.42,-5.0,-11.0,-11.0,2.0,2.0,0.0,-1.0,-4.0
1.425,-4.0,2.0,7.0,-4.0,-1.0,-2.0,0.0,-2.0
1.43,-0.214111328125,0.22076416015625,-0.58282470703125,0.75213623046875,-0.0849609375,-0.60009765625,0.83056640625,0.5,0.8125,-2.0
1.435,-11.0,-26.0,1.0,3.0,1.0,-1.0,0.0,-1.0
1.44,5.0,-5.0,-8.0,-11.0,-4.0,0.0,-5.0,-5.0,-0.21392822265625,0.22076416015625,-0.58306884765625,0.75201416015625,-0.08349609375,-0.59716796875,0.82470703125,1.0625,1.125,-1.125
1.445,0.0,7.0,-1.0,-2.0,-1.0,-2.0,-1.0,5.0
1.45,-1.0,12.0,12.0,3.0,0.0,-5.0,0.0,-2.0,-0.2139892578125,0.2208251953125,-0.58306884765625,0.75201416015625,-0.09033203125,-0.6015625,0.822265625,0.9375,0.9375,-0.1875
1.455,-4.0,-18.0,-24.0,-12.0,-6.0,-2.0,-6.0,7.0
1.46
1.465,2.0,4.0,-10.0,7.0,0.0,-2.0,-3.0,1.0,-0.2135009765625,0.22064208984375,-0.583251953125,0.75201416015625,-0.09423828125,-0.60009765625,0.83056640625,3.25,0.375,-0.75
1.47
1.475,-4.0,-20.0,15.0,3.0,1.0,4.0,6.0,2.0
1.48,7.0,29.0,-19.0,1.0,0.0,8.0,3.0,-9.0,-0.21331787109375,0.22027587890625,-0.58349609375,0.75201416015625,-0.09326171875,-0.58642578125,0.810546875,2.75,-1.25,-1.75
1.485
1.49,8.0,20.0,-17.0,-14.0,-6.0,-3.0,-4.0,-15.0,-0.2130126953125,0.2200927734375,-0.5836181640625,0.7520751953125,-0.08740234375,-0.5986328125,0.82568359375,2.6875,0.0625,-0.25
1.495
1.5,-1.0,20.0,11.0,-3.0,0.0,-4.0,-2.0,-3.0,-0.21246337890625,0.219970703125,-0.583740234375,0.75213623046875,-0.083984375,-0.60400390625,0.82275390625,4.3125,1.375,0.25
1.505
1.51,-16.0,-4.0,-9.0,0.0,-4.0,-2.0,-2.0,-5.0,-0.2117919921875,0.2200927734375,-0.5838623046875,0.752197265625,-0.10107421875,-0.5927734375,0.822265625,3.125,1.875,-0.125
1.515,0.0,13.0,9.0,1.0,-1.0,-2.0,0.0,9.0
1.52,0.0,-34.0,-13.0,-5.0,-1.0,0.0,-3.0,-11.0
1.525,-0.2113037109375,0.220458984375,-0.58392333984375,0.752197265625,-0.1005859375,-0.5888671875,0.83056640625,1.0,2.5,0.4375
1.53,-10.0,-67.0,10.0,-14.0,-8.0,2.0,-2.0,-7.0
1.535,-22.0,22.0,-12.0,-14.0,-8.0,-9.0,-14.0,-32.0,-0.210205078125,0.220947265625,-0.584228515625,0.7520751953125,-0.09033203125,-0.59375,0.85009765625,3.375,3.625,-0.0625
1.54,7.0,20.0,-4.0,6.0,3.0,2.0,1.0,9.0
1.545,-0.20892333984375,0.22113037109375,-0.58447265625,0.752197265625,-0.0966796875,-0.6279296875,0.82470703125,8.25,4.5625,1.125
1.55,8.0,18.0,55.0,16.0,4.0,3.0,5.0,9.0
1.555,-4.0,-35.0,17.0,-14.0,-6.0,-8.0,-6.0,0.0
1.56,-0.20697021484375,0.22064208984375,-0.58477783203125,0.752685546875,-0.10498046875,-0.5537109375,0.83935546875,8.875,3.625,1.4375
1.565,-20.0,-4.0,4.0,5.0,7.0,4.0,3.0,6.0
1.57
1.575,17.0,48.0,19.0,16.0,2.0,0.0,2.0,0.0,-0.206787109375,0.22161865234375,-0.58416748046875,0.7529296875,-0.1083984375,-0.6083984375,0.80078125,0.0,2.5625,4.5625
1.58,17.0,42.0,-33.0,-17.0,-3.0,2.0,61.0,21.0
1.585,-0.20611572265625,0.2216796875,-0.583984375,0.75323486328125,-0.0986328125,-0.6103515625,0.84423828125,3.9375,1.9375,2.5
1.59,11.0,-57.0,-10.0,16.0,-2.0,-1.0,-13.0,7.0
1.595,-0.2047119140625,0.2216796875,-0.58441162109375,0.75323486328125,-0.0869140625,-0.59619140625,0.8369140625,7.375,5.75,0.5625
1.6,12.0,-26.0,-17.0,-17.0,-5.0,-4.0,2.0,-6.0
1.605
1.61,13.0,26.0,4.0,-10.0,-5.0,-9.0,-28.0,-19.0,-0.2025146484375,0.22119140625,-0.58489990234375,0.75360107421875,-0.1015625,-0.544921875,0.83056640625,10.6875,5.1875,1.0
1.615,6.0,36.0,33.0,-6.0,-5.0,-3.0,11.0,29.0
1.62,-0.20135498046875,0.22149658203125,-0.5848388671875,0.75390625,-0.125,-0.5791015625,0.82470703125,4.8125,3.125,2.1875
1.625
1.63,-30.0,-45.0,-14.0,-27.0,-15.0,-8.0,-16.0,-14.0
1.635,-0.20111083984375,0.2220458984375,-0.58447265625,0.75408935546875,-0.08837890625,-0.57421875,0.8466796875,-1.5,3.25,3.5
1.64,-5.0,32.0,31.0,-5.0,-7.0,4.0,10.0,-46.0
1.645,21.0,26.0,12.0,37.0,20.0,6.0,-18.0,-10.0
1.65,-40.0,-68.0,-128.0,-28.0,-12.0,-5.0,-10.0,-26.0,-0.20086669921875,0.2232666015625,-0.5845947265625,0.75372314453125,-0.08740234375,-0.595703125,0.826171875,-1.8125,7.5625,0.75
1.655,5.0,-21.0,65.0,24.0,4.0,-7.0,-2.0,-34.0,-0.1998291015625,0.22418212890625,-0.5848388671875,0.75347900390625,-0.125,-0.60400390625,0.8505859375,2.75,7.0625,-0.125
1.66,3.0,-25.0,-68.0,-10.0,-2.0,-2.0,-4.0,18.0
1.665,-0.199462890625,0.224609375,-0.58465576171875,0.75360107421875,-0.1376953125,-0.61181640625,0.7978515625,3.5,0.875,1.1875
1.67,25.0,10.0,53.0,2.0,-2.0,2.0,44.0,76.0
1.675,15.0,15.0,108.0,31.0,8.0,3.0,-4.0,5.0
1.68,51.0,73.0,87.0,53.0,16.0,3.0,11.0,32.0,-0.1993408203125,0.224853515625,-0.58306884765625,0.75482177734375,-0.1259765625,-0.650390625,0.7841796875,5.4375,-3.625,11.4375
1.685,-4.0,45.0,-34.0,-18.0,-10.0,7.0,60.0,13.0,-0.196533203125,0.22344970703125,-0.58294677734375,0.75604248046875,-0.0869140625,-0.56640625,0.83935546875,17.875,3.125,7.3125
1.69,-52.0,19.0,52.0,2.0,-4.0,-3.0,-3.0,-86.0
1.695
1.7,-43.0,-72.0,-114.0,-37.0,-16.0,-6.0,11.0,-46.0,-0.194091796875,0.223388671875,-0.58380126953125,0.75604248046875,-0.11572265625,-0.50830078125,0.83935546875,8.75,8.75,-0.8125
1.705
1.71,-1.0,-12.0,-58.0,-18.0,0.0,3.0,-5.0,12.0
1.715,-0.1929931640625,0.22467041015625,-0.583740234375,0.7559814453125,-0.12841796875,-0.50830078125,0.82666015625,-2.625,8.3125,1.6875
1.72
1.725,21.0,24.0,-48.0,11.0,5.0,15.0,67.0,107.0,-0.19281005859375,0.22607421875,-0.58306884765625,0.756103515625,-0.11181640625,-0.52685546875,0.82275390625,-6.375,6.125,5.125
1.73,17.0,-11.0,117.0,21.0,-3.0,19.0,23.0,33.0
1.735,-0.19268798828125,0.22723388671875,-0.58270263671875,0.756103515625,-0.1171875,-0.5537109375,0.828125,-4.375,5.25,2.9375
1.74,10.0,-7.0,55.0,32.0,11.0,5.0,-42.0,0.0
1.745,-11.0,-27.0,39.0,12.0,0.0,-9.0,-46.0,4.0
1.75,-0.19158935546875,0.22735595703125,-0.58282470703125,0.7562255859375,-0.1015625,-0.54443359375,0.8388671875,3.5625,5.25,2.125
1.755,-17.0,70.0,72.0,2.0,6.0,-4.0,-12.0,-18.0
1.76,-0.1907958984375,0.227783203125,-0.5830078125,0.7562255859375,-0.119140625,-0.53271484375,0.85009765625,-0.0625,5.125,0.625
1.765,-33.0,-3.0,16.0,0.0,2.0,19.0,127.0,25.0
1.77,-0.19024658203125,0.22808837890625,-0.58258056640625,0.75653076171875,-0.15234375,-0.5439453125,0.8349609375,0.0625,0.875,2.875
1.775,50.0,72.0,36.0,3.0,7.0,4.0,16.0,46.0
1.78,16.0,-8.0,-32.0,51.0,14.0,-17.0,-74.0,-74.0
1.785,-0.19073486328125,0.2281494140625,-0.58209228515625,0.75677490234375,-0.1044921875,-0.56591796875,0.82763671875,-2.3125,-1.1875,2.9375
1.79,-42.0,-94.0,-106.0,-61.0,-21.0,-16.0,-46.0,-60.0
1.795,20.0,67.0,-69.0,-26.0,0.0,-27.0,-73.0,-88.0,-0.19091796875,0.2283935546875,-0.58203125,0.7567138671875,-0.1083984375,-0.57177734375,0.82177734375,-0.9375,1.3125,0.75
1.8,65.0,78.0,-25.0,28.0,13.0,7.0,9.0,45.0
1.805,-18.0,51.0,-62.0,-10.0,-9.0,-18.0,-49.0,2.0
1.81,-0.1903076171875,0.2286376953125,-0.58197021484375,0.7568359375,-0.1123046875,-0.55078125,0.8408203125,1.0,3.625,2.0625
1.815,-25.0,-37.0,-13.0,-46.0,-23.0,-29.0,-78.0,-15.0
1.82,-9.0,33.0,-101.0,-33.0,10.0,-18.0,-67.0,21.0,-0.189697265625,0.22882080078125,-0.58203125,0.75689697265625,-0.12890625,-0.529296875,0.85302734375,-0.4375,3.125,0.5625
1.825,45.0,117.0,62.0,22.0,-2.0,-29.0,-72.0,82.0,-0.18988037109375,0.229248046875,-0.581787109375,0.75689697265625,-0.1474609375,-0.52734375,0.8251953125,-4.25,-0.4375,0.25
1.83,3.0,-22.0,-86.0,-19.0,1.0,42.0,94.0,112.0
1.835,-0.19158935546875,0.23016357421875,-0.5810546875,0.75677490234375,-0.11328125,-0.595703125,0.83837890625,-10.1875,-1.4375,2.4375
1.84,-10.0,-93.0,-48.0,-17.0,-6.0,-22.0,-71.0,-2.0
1.845,42.0,31.0,-33.0,33.0,19.0,9.0,-46.0,-20.0
1.85,-27.0,11.0,64.0,22.0,-1.0,24.0,58.0,-74.0,-0.19171142578125,0.23052978515625,-0.58074951171875,0.7568359375,-0.11767578125,-0.61474609375,0.84619140625,0.25,1.375,2.6875
1.855,-37.0,6.0,-12.0,-34.0,-16.0,-4.0,66.0,2.0,-0.19097900390625,0.23095703125,-0.58056640625,0.75701904296875,-0.14990234375,-0.5732421875,0.84326171875,1.875,2.875,1.875
1.86,-13.0,-42.0,-61.0,5.0,23.0,7.0,-19.0,-74.0
1.865
1.87,31.0,77.0,13.0,9.0,13.0,-37.0,-128.0,-107.0,-0.1900634765625,0.230712890625,-0.58038330078125,0.75750732421875,-0.1650390625,-0.5458984375,0.83349609375,3.8125,-1.0,1.75
1.875,30.0,18.0,39.0,-11.0,-7.0,33.0,127.0,63.0
1.88,-1.0,-22.0,9.0,46.0,13.0,-15.0,-76.0,29.0,-0.190673828125,0.23114013671875,-0.58001708984375,0.7574462890625,-0.15966796875,-0.57080078125,0.8173828125,-3.75,-2.0625,0.125
1.885,-7.0,31.0,-72.0,-42.0,-15.0,26.0,95.0,27.0
1.89,-18.0,-128.0,35.0,-25.0,-17.0,-8.0,-10.0,-42.0,-0.191162109375,0.2314453125,-0.58001708984375,0.75726318359375,-0.1240234375,-0.58447265625,0.84814453125,-3.1875,0.4375,-0.5
1.895,14.0,-19.0,-78.0,-33.0,-6.0,-14.0,-56.0,36.0
1.9,-0.1910400390625,0.23223876953125,-0.58050537109375,0.7567138671875,-0.13427734375,-0.56787109375,0.849609375,-2.5625,5.125,-3.1875
1.905,-40.0,9.0,-30.0,12.0,-1.0,-9.0,-32.0,-59.0
1.91,-26.0,-47.0,-128.0,-67.0,-5.0,-1.0,9.0,-15.0
1.915,-0.19140625,0.23345947265625,-0.58050537109375,0.7562255859375,-0.15771484375,-0.591796875,0.8369140625,-5.125,3.25,-1.6875
1.92,58.0,-9.0,0.0,1.0,-18.0,-7.0,11.0,65.0
1.925,-0.19140625,0.233642578125,-0.5804443359375,0.75616455078125,-0.1865234375,-0.609375,0.806640625,0.25,0.0625,0.4375
1.93,-37.0,-102.0,-116.0,-34.0,-9.0,26.0,111.0,-19.0
1.935,-0.19091796875,0.23297119140625,-0.580322265625,0.756591796875,-0.14990234375,-0.60498046875,0.830078125,6.625,-3.0625,1.5625
1.94,-20.0,52.0,40.0,-15.0,-28.0,-3.0,12.0,-15.0
1.945,-9.0,43.0,83.0,32.0,2.0,-27.0,-60.0,-34.0
1.95,-0.18963623046875,0.231689453125,-0.58123779296875,0.75665283203125,-0.1181640625,-0.5341796875,0.86669921875,8.0,0.625,-3.0625
1.955,-25.0,13.0,35.0,5.0,-14.0,11.0,99.0,47.0,-0.18817138671875,0.23095703125,-0.5821533203125,0.75653076171875,-0.12548828125,-0.49658203125,0.849609375,5.375,3.3125,-4.0
1.96,-17.0,-39.0,1.0,0.0,33.0,12.0,1.0,3.0
1.965,-0.1876220703125,0.23089599609375,-0.58245849609375,0.7564697265625,-0.1513671875,-0.478515625,0.84716796875,-2.4375,1.3125,-2.1875
1.97,-23.0,-30.0,-4.0,-10.0,-5.0,-7.0,9.0,-23.0
1.975
1.98,-1.0,8.0,25.0,-24.0,-17.0,-1.0,-4.0,-24.0,-0.18896484375,0.232177734375,-0.58233642578125,0.75579833984375,-0.14501953125,-0.59619140625,0.82763671875,-9.0,0.75,-2.25
1.985,-26.0,-71.0,17.0,-1.0,-8.0,-3.0,-23.0,-23.0,-0.19049072265625,0.233642578125,-0.58123779296875,0.755859375,-0.16455078125,-0.6103515625,0.82373046875,-10.25,-1.75,3.75
1.99,22.0,17.0,-11.0,-24.0,-17.0,3.0,25.0,19.0
1.995,-38.0,-8.0,-33.0,-4.0,10.0,-11.0,-23.0,-38.0
2.0,-0.19171142578125,0.2337646484375,-0.58099365234375,0.75567626953125,-0.12353515625,-0.619140625,0.79833984375,-2.125,-3.125,-0.5
2.005,-6.0,-7.0,1.0,-2.0,-7.0,-2.0,5.0,-11.0
2.01,45.0,64.0,38.0,7.0,-8.0,0.0,11.0,14.0
2.015,-19.0,39.0,-21.0,-17.0,4.0,-11.0,-24.0,-45.0,-0.19293212890625,0.2342529296875,-0.5804443359375,0.755615234375,-0.13720703125,-0.5927734375,0.82373046875,-6.25,-3.125,1.25
2.02,13.0,39.0,-1.0,-3.0,-6.0,13.0,55.0,10.0,-0.195068359375,0.2353515625,-0.579345703125,0.75555419921875,-0.14599609375,-0.62890625,0.83837890625,-12.25,-4.25,2.8125
2.025,0.0,-52.0,-37.0,4.0,1.0,1.0,5.0,-4.0
2.03,-7.0,12.0,-2.0,32.0,11.0,0.0,-14.0,-7.0,-0.19610595703125,0.23583984375,-0.57830810546875,0.7559814453125,-0.14306640625,-0.64697265625,0.8642578125,-4.75,-3.5,5.0625
2.035,23.0,9.0,20.0,8.0,-6.0,-1.0,-9.0,7.0
2.04,-23.0,-27.0,-13.0,-14.0,-8.0,-6.0,-3.0,14.0
2.045,-0.19647216796875,0.23675537109375,-0.576904296875,0.75665283203125,-0.19482421875,-0.57568359375,0.8154296875,-5.625,-3.0625,6.4375
2.05,-7.0,-9.0,13.0,-3.0,-2.0,1.0,1.0,0.0
2.055,8.0,1.0,-16.0,-5.0,5.0,-1.0,-1.0,5.0,-0.19818115234375,0.23699951171875,-0.57513427734375,0.7574462890625,-0.181640625,-0.60107421875,0.78955078125,-7.25,-10.875,6.4375
2.06,-7.0,23.0,1.0,-11.0,-2.0,2.0,10.0,8.0
2.065,-7.0,-45.0,14.0,-1.0,-7.0,-5.0,-25.0,-6.0
2.07,-0.199462890625,0.23590087890625,-0.573974609375,0.75836181640625,-0.1171875,-0.677734375,0.79541015625,4.0,-10.875,6.375
2.075,-16.0,5.0,-15.0,-5.0,2.0,6.0,0.0,2.0
2.08,-30.0,15.0,7.0,-5.0,-10.0,-10.0,-10.0,-5.0
2.085,-0.19818115234375,0.233642578125,-0.5738525390625,0.759521484375,-0.11669921875,-0.61328125,0.80224609375,16.625,-6.75,4.4375
2.09,-7.0,-3.0,20.0,10.0,2.0,-2.0,12.0,-3.0
2.095,0.0,-3.0,-6.0,13.0,5.0,-3.0,-5.0,-14.0,-0.19525146484375,0.23046875,-0.57452392578125,0.7607421875,-0.12109375,-0.5166015625,0.8232421875,22.75,-4.6875,1.125
2.1,-2.0,28.0,33.0,13.0,7.0,4.0,1.0,2.0,-0.1942138671875,0.2291259765625,-0.57452392578125,0.76141357421875,-0.13525390625,-0.51611328125,0.81396484375,7.3125,-4.125,1.3125
2.105,8.0,11.0,-7.0,-10.0,-3.0,0.0,-1.0,4.0
2.11,-0.19488525390625,0.2288818359375,-0.57415771484375,0.76153564453125,-0.140625,-0.52880859375,0.814453125,-4.0625,-4.625,0.1875
2.115,6.0,-17.0,-22.0,-8.0,-3.0,-6.0,-2.0,1.0
2.12,-53.0,0.0,19.0,0.0,-6.0,-2.0,0.0,-5.0
2.125,4.0,-3.0,6.0,5.0,3.0,-4.0,-3.0,-1.0,-0.19647216796875,0.22930908203125,-0.5733642578125,0.7615966796875,-0.1376953125,-0.6083984375,0.833984375,-7.25,-5.0,1.5625
2.13,27.0,18.0,-1.0,-10.0,-8.0,-9.0,-9.0,-6.0
2.135,-0.1971435546875,0.22882080078125,-0.5732421875,0.76171875,-0.12060546875,-0.62646484375,0.8310546875,1.5625,-4.5625,0.25
2.14,14.0,23.0,5.0,4.0,1.0,-3.0,5.0,7.0
2.145,7.0,0.0,-7.0,-7.0,-1.0,0.0,2.0,3.0
2.15,-0.1962890625,0.22747802734375,-0.57366943359375,0.761962890625,-0.11474609375,-0.580078125,0.83642578125,9.375,-2.625,-1.0
2.155,11.0,11.0,15.0,-2.0,-4.0,-2.0,0.0,5.0
2.16,-23.0,-14.0,-25.0,-9.0,0.0,4.0,-3.0,-10.0,-0.19537353515625,0.22601318359375,-0.57415771484375,0.76226806640625,-0.11083984375,-0.51220703125,0.8388671875,6.6875,-2.3125,-1.625
2.165,12.0,-9.0,-4.0,-8.0,-1.0,0.0,-1.0,1.0
2.17
2.175,1.0,-1.0,-4.0,-2.0,-5.0,-5.0,0.0,1.0,-0.1956787109375,0.22540283203125,-0.5740966796875,0.76239013671875,-0.142578125,-0.494140625,0.8251953125,-3.25,-5.3125,-2.0
2.18
2.185,5.0,6.0,2.0,7.0,3.0,0.0,-4.0,3.0,-0.19866943359375,0.2261962890625,-0.57330322265625,0.76202392578125,-0.12890625,-0.55712890625,0.81982421875,-17.5,-7.4375,-1.1875
2.19,-2.0,-19.0,-10.0,-4.0,-1.0,-4.0,1.0,11.0
2.195,-0.2021484375,0.22686767578125,-0.57275390625,0.7613525390625,-0.099609375,-0.62353515625,0.83544921875,-16.5625,-7.125,-2.5
2.2
2.205,-37.0,17.0,0.0,0.0,1.0,0.0,-1.0,-12.0,-0.20391845703125,0.22674560546875,-0.5728759765625,0.76080322265625,-0.10107421875,-0.6396484375,0.82763671875,-4.5,-4.625,-3.9375
2.21,8.0,2.0,-8.0,-4.0,3.0,1.0,0.0,0.0
2.215,-9.0,-7.0,12.0,2.0,-2.0,0.0,0.0,1.0,-0.203857421875,0.22564697265625,-0.57379150390625,0.76043701171875,-0.08837890625,-0.58056640625,0.830078125,4.5,-1.875,-5.5
2.22,-1.0,-33.0,-3.0,2.0,-2.0,-2.0,-3.0,0.0
2.225,-0.2039794921875,0.22515869140625,-0.574462890625,0.76007080078125,-0.11474609375,-0.52490234375,0.83740234375,-1.9375,-1.8125,-5.4375
2.23,8.0,7.0,0.0,-2.0,-6.0,-5.0,-2.0,1.0,-0.20550537109375,0.22515869140625,-0.57452392578125,0.75958251953125,-0.1259765625,-0.55908203125,0.82421875,-7.9375,-5.25,-4.875
2.235,-16.0,10.0,20.0,8.0,4.0,2.0,0.0,-14.0
2.24,12.0,8.0,0.0,-1.0,-5.0,-4.0,-3.0,-7.0
2.245,-17.0,-12.0,1.0,-1.0,1.0,-1.0,-2.0,-7.0,-0.20782470703125,0.22479248046875,-0.57476806640625,0.7589111328125,-0.09765625,-0.5888671875,0.818359375,-9.25,-7.75,-6.3125
2.25
2.255,-11.0,2.0,-8.0,2.0,0.0,-1.0,1.0,1.0,-0.2099609375,0.22412109375,-0.57513427734375,0.7581787109375,-0.0869140625,-0.6142578125,0.83349609375,-6.0,-7.5625,-6.875
2.26,-2.0,-9.0,6.0,0.0,-2.0,0.0,1.0,-2.0,-0.21087646484375,0.222900390625,-0.57574462890625,0.75787353515625,-0.08984375,-0.61376953125,0.82177734375,1.9375,-6.9375,-5.8125
2.265,11.0,-24.0,3.0,-4.0,1.0,1.0,2.0,7.0
2.27,-0.21099853515625,0.2213134765625,-0.5765380859375,0.7576904296875,-0.09326171875,-0.5712890625,0.81982421875,5.1875,-6.3125,-6.375
2.275,0.0,0.0,-8.0,-3.0,-4.0,-1.0,-1.0,-4.0
2.28,4.0,-11.0,18.0,0.0,-2.0,-5.0,-1.0,5.0,-0.21160888671875,0.220458984375,-0.576904296875,0.75750732421875,-0.10107421875,-0.5615234375,0.8154296875,-0.6875,-5.5625,-4.4375
2.285,-5.0,-8.0,8.0,13.0,5.0,1.0,0.0,3.0,-0.21295166015625,0.219970703125,-0.576904296875,0.7572021484375,-0.09033203125,-0.57666015625,0.822265625,-4.9375,-6.375,-3.4375
2.29,-12.0,-15.0,-13.0,-6.0,-10.0,-6.0,-7.0,-5.0
2.295,1.0,8.0,-5.0,-5.0,-2.0,-1.0,-2.0,0.0
2.3,-0.21441650390625,0.2196044921875,-0.57708740234375,0.75677490234375,-0.08935546875,-0.59423828125,0.8271484375,-5.25,-6.0625,-4.6875
2.305,-3.0,2.0,-6.0,3.0,0.0,1.0,2.0,1.0
2.31,-1.0,3.0,-14.0,6.0,1.0,-1.0,-3.0,1.0,-0.2158203125,0.21929931640625,-0.5775146484375,0.75616455078125,-0.07958984375,-0.60595703125,0.83203125,-4.75,-4.1875,-5.8125
2.315,-2.0,-19.0,-26.0,-17.0,-6.0,-2.0,-3.0,2.0,-0.21649169921875,0.2186279296875,-0.57806396484375,0.75579833984375,-0.07958984375,-0.60546875,0.83203125,0.25,-3.875,-5.0
2.32,4.0,32.0,21.0,7.0,4.0,1.0,-1.0,0.0
2.325,-0.21673583984375,0.2178955078125,-0.57843017578125,0.755615234375,-0.0908203125,-0.59716796875,0.8408203125,1.0625,-3.875,-4.0
2.33,-6.0,-11.0,-11.0,0.0,-2.0,0.0,-2.0,4.0
2.335,17.0,31.0,8.0,4.0,3.0,-1.0,3.0,5.0,-0.21728515625,0.2176513671875,-0.57855224609375,0.75543212890625,-0.0927734375,-0.60400390625,0.83251953125,-1.0625,-3.5,-2.5625
2.34,5.0,32.0,5.0,0.0,1.0,-2.0,-1.0,0.0,-0.21771240234375,0.21728515625,-0.57879638671875,0.7552490234375,-0.0859375,-0.60693359375,0.8427734375,-0.625,-2.75,-2.9375
2.345
2.35,0.0,-6.0,-7.0,-10.0,-1.0,-4.0,-4.0,-3.0,-0.2178955078125,0.21710205078125,-0.5792236328125,0.7548828125,-0.0888671875,-0.58251953125,0.83642578125,-0.875,-0.9375,-4.0
2.355,10.0,14.0,-1.0,5.0,2.0,3.0,-1.0,4.0
2.36,-0.21820068359375,0.21722412109375,-0.57958984375,0.7545166015625,-0.0869140625,-0.5810546875,0.82958984375,-2.8125,-0.25,-3.625
2.365,1.0,15.0,1.0,-3.0,-2.0,-2.0,0.0,7.0
2.37,0.0,-34.0,-15.0,2.0,0.0,1.0,0.0,-1.0,-0.21893310546875,0.21746826171875,-0.57965087890625,0.754150390625,-0.0859375,-0.59619140625,0.83056640625,-4.25,-1.5625,-2.5
2.375,-10.0,-13.0,-4.0,-5.0,-1.0,-1.0,0.0,-1.0
2.38,-5.0,-11.0,6.0,-2.0,-2.0,0.0,-2.0,5.0,-0.21978759765625,0.2176513671875,-0.57958984375,0.75390625,-0.07861328125,-0.63232421875,0.82177734375,-2.625,-1.8125,-1.1875
2.385,3.0,21.0,5.0,1.0,-2.0,-1.0,-1.0,-1.0
2.39,-0.21990966796875,0.21759033203125,-0.57958984375,0.75384521484375,-0.068359375,-0.62451171875,0.8232421875,1.1875,-0.4375,-0.1875
2.395,-1.0,0.0,2.0,-6.0,-3.0,-4.0,-1.0,-4.0,-0.219482421875,0.217529296875,-0.5797119140625,0.75396728515625,-0.07666015625,-0.6064453125,0.82568359375,3.125,1.125,0.4375
2.4,2.0,-23.0,-3.0,0.0,-2.0,-2.0,-4.0,-5.0
2.405,-6.0,-5.0,4.0,-3.0,-2.0,-3.0,0.0,-1.0
2.41,-0.21893310546875,0.21759033203125,-0.57989501953125,0.75390625,-0.0830078125,-0.578125,0.8251953125,1.25,1.75,-0.875
2.415,2.0,1.0,3.0,0.0,0.0,2.0,1.0,-3.0
2.42,6.0,0.0,-10.0,-10.0,-10.0,-5.0,-4.0,3.0
2.425,-0.218994140625,0.21795654296875,-0.5799560546875,0.7537841796875,-0.083984375,-0.5751953125,0.82275390625,-2.625,1.4375,-0.6875
