time,channel_1,channel_2,channel_3,channel_4,channel_5,channel_6,channel_7,channel_8,orientation_x,orientation_y,orientation_z,orientation_w,acceleration_x,acceleration_y,acceleration_z,gyroscope_x,gyroscope_y,gyroscope_z
0.005,-2.0,-2.0,-4.0,-5.0,0.0,-2.0,-2.0,-2.0,-0.06219482421875,0.0125732421875,-0.9970703125,-0.04327392578125,0.13134765625,-0.02392578125,0.99609375,-0.1875,-0.0625,1.0
0.01,5.0,17.0,3.0,-1.0,2.0,1.0,2.0,-2.0,-0.06182861328125,0.01220703125,-0.99713134765625,-0.0428466796875,0.13037109375,-0.02001953125,0.98828125,-1.5625,1.0,-0.125
0.015,-5.0,-17.0,-2.0,-4.0,-4.0,-4.0,-3.0,-3.0,-0.06158447265625,0.01214599609375,-0.99713134765625,-0.04302978515625,0.12890625,-0.0185546875,0.9921875,0.125,0.875,-0.1875
0.02,-2.0,-12.0,-3.0,0.0,-1.0,0.0,-1.0,-14.0,-0.0604248046875,0.01239013671875,-0.9971923828125,-0.0435791015625,0.125,-0.013671875,0.99169921875,-0.0625,1.1875,-0.4375
0.025,1.0,2.0,-1.0,1.0,-3.0,-2.0,2.0,5.0,-0.05926513671875,0.0115966796875,-0.99725341796875,-0.04376220703125,0.125,-0.02099609375,0.9873046875,0.5,1.375,-0.625
0.03,-3.0,13.0,8.0,4.0,-1.0,-2.0,-4.0,-14.0,-0.0584716796875,0.00982666015625,-0.99737548828125,-0.04296875,0.11328125,-0.0166015625,0.9921875,5.4375,0.0,0.6875
0.035,-14.0,-5.0,4.0,4.0,-2.0,2.0,5.0,-9.0,-0.05908203125,0.005859375,-0.997314453125,-0.04425048828125,0.13037109375,0.02587890625,0.99267578125,3.1875,-0.8125,-1.75
0.04,7.0,-6.0,-4.0,-2.0,-1.0,12.0,18.0,-10.0,-0.058349609375,0.0025634765625,-0.997314453125,-0.04498291015625,0.13037109375,-0.01171875,0.990234375,8.6875,1.0625,0.625
0.045,-8.0,17.0,17.0,7.0,0.0,0.0,7.0,-17.0,-0.056640625,-0.007080078125,-0.99737548828125,-0.04571533203125,0.1298828125,0.00244140625,0.998046875,9.5625,4.6875,-0.0625
0.05,-27.0,-69.0,7.0,2.0,-1.0,-32.0,-57.0,10.0,-0.0496826171875,-0.00537109375,-0.9979248046875,-0.04193115234375,0.10498046875,0.00341796875,0.9765625,-17.9375,6.8125,5.5
0.055,-15.0,1.0,2.0,-5.0,-20.0,8.0,50.0,-88.0,-0.044921875,0.00103759765625,-0.99822998046875,-0.039306640625,0.0927734375,0.01318359375,0.99951171875,2.4375,2.75,0.625
0.06,-22.0,-85.0,-45.0,-32.0,-19.0,-48.0,7.0,-80.0,-0.0447998046875,0.00030517578125,-0.99822998046875,-0.0394287109375,0.06591796875,-0.0439453125,0.98193359375,0.0,0.0625,2.0
0.065,-8.0,-80.0,-58.0,-49.0,-14.0,-29.0,-88.0,44.0,-0.047119140625,-0.00299072265625,-0.99798583984375,-0.0430908203125,0.1005859375,0.0390625,1.0,-1.1875,-1.3125,-5.875
0.07,23.0,-10.0,106.0,77.0,77.0,86.0,92.0,105.0,-0.04656982421875,-0.00518798828125,-0.99786376953125,-0.04669189453125,0.0966796875,-0.044921875,0.9921875,7.875,2.375,-0.4375
0.075,-12.0,-10.0,-28.0,-8.0,27.0,27.0,25.0,17.0,-0.0467529296875,-0.0194091796875,-0.99749755859375,-0.049560546875,0.09716796875,0.203125,1.0244140625,19.5625,-4.25,-6.75
0.08,-12.0,-18.0,-13.0,-6.0,-7.0,11.0,22.0,0.0,-0.05322265625,-0.02459716796875,-0.99676513671875,-0.055908203125,0.1162109375,0.12158203125,0.9853515625,-7.625,-0.25,-8.4375
0.085,-8.0,-7.0,12.0,5.0,21.0,18.0,1.0,3.0,-0.05450439453125,-0.02532958984375,-0.99664306640625,-0.056640625,0.12109375,0.04150390625,0.98876953125,-5.5,-1.1875,2.1875
0.09,-11.0,-23.0,-10.0,-7.0,2.0,-3.0,-4.0,-10.0,-0.0517578125,-0.014404296875,-0.9970703125,-0.05462646484375,0.09375,-0.00439453125,1.02001953125,-24.0,2.375,4.8125
0.095,3.0,24.0,9.0,-7.0,-7.0,2.0,-4.0,-3.0,-0.05084228515625,-0.00653076171875,-0.997314453125,-0.05242919921875,0.1171875,-0.0107421875,0.99072265625,-16.375,0.75,4.9375
0.1,2.0,0.0,-7.0,-3.0,-3.0,-2.0,0.0,3.0,-0.0496826171875,-0.00433349609375,-0.99749755859375,-0.05035400390625,0.09716796875,0.02294921875,0.99609375,-5.3125,0.625,2.8125
0.105,8.0,-24.0,-11.0,-7.0,-8.0,-7.0,-4.0,1.0,-0.0528564453125,-0.00616455078125,-0.99737548828125,-0.04937744140625,0.10400390625,0.0517578125,1.00341796875,-1.3125,-3.8125,1.0625
0.11,10.0,49.0,17.0,0.0,-3.0,-1.0,-2.0,-1.0,-0.05670166015625,-0.00347900390625,-0.9971923828125,-0.050048828125,0.11767578125,0.01220703125,0.99169921875,-3.5625,-2.875,1.0
0.115,-2.0,-14.0,-9.0,-1.0,5.0,-2.0,0.0,-2.0,-0.0594482421875,-0.00201416015625,-0.9970703125,-0.04937744140625,0.1240234375,-0.02294921875,0.98583984375,-1.25,-2.75,0.0
0.12,1.0,1.0,-4.0,-2.0,-5.0,-4.0,0.0,-3.0,-0.06005859375,-0.00030517578125,-0.9969482421875,-0.04998779296875,0.12109375,-0.01123046875,0.99267578125,-0.8125,-1.6875,1.5625
0.125,2.0,-17.0,-6.0,1.0,2.0,-1.0,5.0,-2.0,-0.06134033203125,-0.0001220703125,-0.99688720703125,-0.05023193359375,0.125,0.0078125,0.9912109375,-0.6875,0.3125,-0.8125
0.13,4.0,12.0,1.0,3.0,8.0,4.0,2.0,3.0,-0.06134033203125,0.00048828125,-0.996826171875,-0.05126953125,0.12939453125,0.00146484375,0.98681640625,0.0625,-0.125,-0.6875
0.135,1.0,16.0,5.0,0.0,4.0,1.0,-1.0,-2.0,-0.061279296875,0.000244140625,-0.996826171875,-0.05157470703125,0.12158203125,0.00634765625,0.998046875,0.9375,0.6875,-1.0625
0.14,4.0,1.0,8.0,5.0,2.0,0.0,-1.0,1.0,-0.060791015625,0.00152587890625,-0.9969482421875,-0.05010986328125,0.11572265625,0.00732421875,0.9775390625,0.125,1.1875,2.625
0.145,-5.0,-53.0,18.0,1.0,-18.0,-11.0,4.0,12.0,-0.05853271484375,0.00115966796875,-0.9971923828125,-0.04742431640625,0.12841796875,0.01220703125,1.00048828125,-10.1875,2.0625,0.625
0.15,-10.0,6.0,10.0,4.0,5.0,7.0,0.0,-18.0,-0.05792236328125,-0.00482177734375,-0.9971923828125,-0.04754638671875,0.115234375,0.03369140625,0.99267578125,4.6875,0.8125,0.9375
0.155,-26.0,-37.0,-22.0,-5.0,-15.0,-19.0,-12.0,-36.0,-0.0582275390625,-0.0107421875,-0.99713134765625,-0.04791259765625,0.1357421875,0.07958984375,0.98291015625,3.5,2.1875,-5.1875
0.16,-1.0,-25.0,-2.0,-2.0,10.0,2.0,-17.0,-18.0,-0.05657958984375,-0.01617431640625,-0.99713134765625,-0.04815673828125,0.125,0.02685546875,0.9853515625,8.75,3.5,1.0625
0.165,-6.0,40.0,5.0,3.0,-5.0,6.0,-2.0,-17.0,-0.0501708984375,-0.0159912109375,-0.99755859375,-0.04681396484375,0.10302734375,0.03466796875,0.98876953125,-7.9375,9.3125,2.9375
0.17,-11.0,-113.0,-30.0,-27.0,-45.0,-128.0,-128.0,0.0,-0.0445556640625,-0.006103515625,-0.998046875,-0.04376220703125,0.09716796875,0.01416015625,0.98779296875,-3.8125,5.875,0.6875
0.175,-51.0,33.0,58.0,11.0,-2.0,-18.0,-35.0,-77.0,-0.04150390625,-0.00360107421875,-0.99822998046875,-0.0435791015625,0.07861328125,0.0390625,0.9912109375,0.875,-1.0625,-0.125
0.18,16.0,-32.0,108.0,50.0,9.0,112.0,93.0,-50.0,-0.044189453125,-0.007080078125,-0.99798583984375,-0.0460205078125,0.0986328125,-0.02001953125,0.98828125,3.8125,-1.875,-0.9375
0.185,-27.0,-14.0,-8.0,-4.0,6.0,-42.0,-12.0,2.0,-0.044921875,-0.0203857421875,-0.9976806640625,-0.0482177734375,0.0625,0.111328125,0.99267578125,16.4375,-4.5,-5.4375
0.19,0.0,34.0,0.0,-5.0,-3.0,-1.0,0.0,-4.0,-0.051513671875,-0.03240966796875,-0.99652099609375,-0.05718994140625,0.107421875,0.1123046875,0.98974609375,-3.75,-3.3125,-7.5
0.195,6.0,38.0,15.0,5.0,-7.0,-8.0,-2.0,-6.0,-0.05078125,-0.0240478515625,-0.99688720703125,-0.05609130859375,0.091796875,0.013671875,0.9697265625,-7.5,3.3125,4.1875
0.2,-1.0,7.0,-6.0,-1.0,-3.0,-1.0,-1.0,-2.0,-0.04876708984375,-0.01055908203125,-0.99737548828125,-0.053466796875,0.1103515625,0.00537109375,0.984375,-9.125,0.9375,4.3125
0.205,15.0,21.0,0.0,0.0,-6.0,-4.0,11.0,1.0,-0.04962158203125,-0.0062255859375,-0.99755859375,-0.04998779296875,0.10791015625,0.0341796875,0.99609375,-0.6875,-0.5625,1.25
0.21,-26.0,-41.0,-34.0,-10.0,-4.0,-11.0,-1.0,0.0,-0.05230712890625,-0.005615234375,-0.99749755859375,-0.04833984375,0.1123046875,0.02734375,0.9990234375,-3.3125,-2.6875,-0.8125
0.215,5.0,-5.0,5.0,2.0,0.0,2.0,-2.0,4.0,-0.05511474609375,-0.00836181640625,-0.997314453125,-0.04815673828125,0.103515625,0.01904296875,0.9775390625,6.8125,-2.0625,1.0
0.22,4.0,42.0,5.0,-1.0,-9.0,-5.0,-1.0,-4.0,-0.05706787109375,-0.00750732421875,-0.9971923828125,-0.0489501953125,0.1162109375,-0.02880859375,0.9833984375,-1.9375,-2.75,2.3125
0.225,2.0,-5.0,-6.0,-5.0,-2.0,1.0,-4.0,-2.0,-0.05792236328125,-0.0079345703125,-0.9970703125,-0.04962158203125,0.11474609375,0.01953125,0.990234375,-4.0625,0.375,-0.25
0.23,-1.0,-45.0,-6.0,-2.0,-1.0,3.0,-2.0,2.0,-0.0584716796875,-0.0059814453125,-0.9970703125,-0.04925537109375,0.12548828125,-0.00048828125,0.990234375,1.4375,-0.5,0.5
0.235,-7.0,-17.0,-5.0,0.0,4.0,5.0,2.0,-2.0,-0.0582275390625,-0.0048828125,-0.9970703125,-0.04986572265625,0.11474609375,0.017578125,0.998046875,-0.125,0.5625,-1.3125
0.24,10.0,19.0,-2.0,0.0,2.0,1.0,-3.0,-3.0,-0.05859375,-0.00408935546875,-0.9970703125,-0.04986572265625,0.11962890625,0.0166015625,0.99169921875,-0.1875,0.25,0.0625
0.245,-3.0,-1.0,-5.0,-3.0,-4.0,0.0,9.0,13.0,-0.05780029296875,-0.00457763671875,-0.99713134765625,-0.04888916015625,0.119140625,0.0166015625,0.986328125,1.125,1.4375,2.0
0.25,-6.0,-13.0,-3.0,0.0,-5.0,0.0,8.0,15.0,-0.056640625,-0.00482177734375,-0.997314453125,-0.04705810546875,0.10546875,0.0205078125,0.99267578125,5.875,1.6875,3.125
0.255,4.0,0.0,-3.0,2.0,3.0,-2.0,-3.0,-8.0,-0.05548095703125,-0.00714111328125,-0.99737548828125,-0.04705810546875,0.11083984375,0.033203125,0.99755859375,8.5625,2.375,-0.9375
0.26,-3.0,10.0,10.0,5.0,-1.0,0.0,0.0,-14.0,-0.0543212890625,-0.01092529296875,-0.99737548828125,-0.04705810546875,0.1123046875,0.0654296875,0.984375,7.0,1.4375,-3.375
0.265,14.0,8.0,12.0,8.0,2.0,3.0,-10.0,14.0,-0.05419921875,-0.015625,-0.997314453125,-0.04742431640625,0.125,0.04931640625,0.9775390625,4.1875,1.0,-3.0
0.27,-27.0,9.0,10.0,-5.0,3.0,8.0,-4.0,-12.0,-0.05328369140625,-0.0201416015625,-0.9971923828125,-0.048828125,0.1044921875,0.1064453125,0.9873046875,0.1875,3.125,-4.6875
0.275,-4.0,-4.0,-25.0,-12.0,-2.0,2.0,-14.0,-77.0,-0.04937744140625,-0.02197265625,-0.997314453125,-0.04949951171875,0.1064453125,0.064453125,0.986328125,3.875,5.0,3.9375
0.28,-20.0,-7.0,39.0,15.0,22.0,37.0,-29.0,-34.0,-0.04046630859375,-0.0059814453125,-0.99822998046875,-0.04449462890625,0.08447265625,-0.04833984375,1.00927734375,-11.3125,4.4375,2.875
0.285,55.0,-41.0,55.0,33.0,9.0,-34.0,104.0,104.0,-0.034912109375,0.0032958984375,-0.99853515625,-0.04241943359375,0.06689453125,-0.01611328125,0.9990234375,0.375,3.75,-0.625
0.29,93.0,45.0,-27.0,-1.0,19.0,-31.0,-41.0,36.0,-0.03558349609375,0.00079345703125,-0.99847412109375,-0.04278564453125,0.0810546875,0.06103515625,1.02734375,0.4375,-1.625,-1.25
0.295,44.0,67.0,35.0,11.0,-42.0,-30.0,-37.0,40.0,-0.03582763671875,-0.00408935546875,-0.9984130859375,-0.04443359375,0.06787109375,-0.03857421875,1.0048828125,6.6875,0.5,0.0
0.3,-6.0,11.0,0.0,-2.0,-10.0,1.0,2.0,-9.0,-0.0367431640625,-0.023193359375,-0.9979248046875,-0.04876708984375,0.09765625,0.11328125,1.0068359375,10.8125,-4.375,-8.1875
0.305,-4.0,-26.0,-12.0,-7.0,4.0,-10.0,-16.0,-8.0,-0.04254150390625,-0.03204345703125,-0.9970703125,-0.0557861328125,0.10302734375,0.0830078125,0.998046875,-2.375,-3.0625,-2.5625
0.31,14.0,34.0,16.0,-2.0,-6.0,-5.0,-2.0,-1.0,-0.041748046875,-0.02838134765625,-0.99737548828125,-0.0526123046875,0.0712890625,0.1162109375,0.99462890625,-21.25,4.4375,5.3125
0.315,-11.0,1.0,-1.0,-1.0,2.0,0.0,-6.0,-4.0,-0.04052734375,-0.01666259765625,-0.99786376953125,-0.04913330078125,0.0908203125,0.02001953125,0.9873046875,-3.75,0.25,3.375
0.32,-2.0,8.0,-4.0,-2.0,15.0,3.0,3.0,-2.0,-0.04034423828125,-0.0103759765625,-0.99810791015625,-0.04620361328125,0.09130859375,0.01171875,0.9951171875,-1.75,0.0,2.8125
0.325,2.0,-25.0,-4.0,0.0,7.0,6.0,-5.0,1.0,-0.04248046875,-0.01116943359375,-0.998046875,-0.04461669921875,0.0966796875,0.02685546875,1.00244140625,-0.6875,-3.75,0.5
0.33,7.0,32.0,12.0,-2.0,3.0,1.0,-14.0,-8.0,-0.0452880859375,-0.0130615234375,-0.9979248046875,-0.0447998046875,0.09228515625,0.03076171875,0.982421875,-0.875,-2.625,0.4375
0.335,-3.0,14.0,-3.0,-1.0,11.0,8.0,-11.0,5.0,-0.0477294921875,-0.01263427734375,-0.997802734375,-0.04437255859375,0.10205078125,0.02197265625,0.9921875,2.75,-1.0625,2.4375
0.34,1.0,-32.0,-20.0,-5.0,-5.0,-1.0,-1.0,0.0,-0.048828125,-0.0118408203125,-0.99774169921875,-0.04559326171875,0.095703125,0.02978515625,0.998046875,-3.3125,-0.9375,-2.6875
0.345,4.0,15.0,1.0,-2.0,-1.0,-2.0,13.0,1.0,-0.04901123046875,-0.01104736328125,-0.99774169921875,-0.0457763671875,0.09814453125,0.01611328125,1.0078125,-1.5,-0.0625,0.75
0.35,-13.0,-28.0,-7.0,-5.0,-9.0,-5.0,-3.0,0.0,-0.0487060546875,-0.01068115234375,-0.99774169921875,-0.04620361328125,0.10693359375,0.01416015625,0.9912109375,-0.6875,0.75,0.4375
0.355,6.0,19.0,6.0,-2.0,-4.0,-4.0,2.0,10.0,-0.048828125,-0.0101318359375,-0.99774169921875,-0.0462646484375,0.1025390625,0.01953125,0.99169921875,-0.375,-0.5,0.75
0.36,-4.0,3.0,3.0,-2.0,-2.0,-2.0,-3.0,-5.0,-0.04833984375,-0.00933837890625,-0.997802734375,-0.045654296875,0.09765625,0.02197265625,1.00341796875,-1.1875,0.75,1.0625
0.365,-9.0,-1.0,5.0,6.0,7.0,4.0,4.0,-11.0,-0.04730224609375,-0.00787353515625,-0.9979248046875,-0.04400634765625,0.0966796875,0.017578125,0.9892578125,-1.25,1.625,-0.1875
0.37,9.0,10.0,0.0,-2.0,-3.0,-6.0,-6.0,1.0,-0.04620361328125,-0.00750732421875,-0.99798583984375,-0.0435791015625,0.09375,0.0283203125,0.994140625,1.375,1.8125,0.0625
0.375,-4.0,-2.0,0.0,-1.0,-2.0,3.0,-1.0,0.0,-0.0450439453125,-0.01043701171875,-0.998046875,-0.04351806640625,0.091796875,0.01171875,0.99169921875,9.5,2.625,1.0625
0.38,2.0,3.0,-4.0,4.0,-4.0,-13.0,-11.0,6.0,-0.043212890625,-0.01513671875,-0.99798583984375,-0.04425048828125,0.0947265625,0.0595703125,0.98779296875,3.375,2.8125,-2.4375
0.385,-1.0,29.0,11.0,3.0,2.0,10.0,-7.0,-33.0,-0.04296875,-0.02099609375,-0.99786376953125,-0.04541015625,0.10546875,0.0546875,0.99755859375,5.625,2.0625,-3.625
0.39,-10.0,2.0,4.0,6.0,-2.0,22.0,25.0,-3.0,-0.0391845703125,-0.02764892578125,-0.997802734375,-0.046630859375,0.0791015625,0.060546875,0.99560546875,2.375,3.0,0.6875
0.395,-3.0,-1.0,-72.0,-35.0,-5.0,7.0,24.0,14.0,-0.03277587890625,-0.01885986328125,-0.9984130859375,-0.04205322265625,0.0859375,-0.01220703125,1.0048828125,-20.5,7.0,7.25
0.4,22.0,42.0,-35.0,-9.0,4.0,-52.0,-46.0,-38.0,-0.0274658203125,-0.0035400390625,-0.99884033203125,-0.04034423828125,0.052734375,-0.0234375,0.986328125,-14.1875,6.25,0.1875
0.405,-21.0,-10.0,22.0,4.0,2.0,4.0,-32.0,-21.0,-0.02685546875,-0.00115966796875,-0.998779296875,-0.04150390625,0.0712890625,-0.00341796875,0.97265625,-2.75,-3.8125,-2.0625
0.41,13.0,-46.0,2.0,1.0,14.0,79.0,44.0,-17.0,-0.0306396484375,-0.010498046875,-0.9986572265625,-0.04156494140625,0.04052734375,-0.01171875,1.02685546875,15.125,-2.4375,-0.875
0.415,-24.0,-22.0,-21.0,-18.0,-20.0,-36.0,-35.0,8.0,-0.030029296875,-0.02142333984375,-0.998291015625,-0.045654296875,0.05029296875,0.06689453125,1.044921875,10.375,0.125,-6.125
0.42,-5.0,-44.0,4.0,5.0,-5.0,2.0,-9.0,14.0,-0.035400390625,-0.03155517578125,-0.99749755859375,-0.05322265625,0.07275390625,0.01904296875,0.98681640625,14.4375,-3.4375,-8.5
0.425,12.0,23.0,12.0,4.0,21.0,7.0,-13.0,-1.0,-0.03759765625,-0.030517578125,-0.99755859375,-0.05078125,0.07568359375,0.044921875,0.99560546875,-10.5,2.6875,5.5625
0.43,-3.0,5.0,-9.0,-6.0,-16.0,-9.0,3.0,-3.0,-0.03594970703125,-0.02008056640625,-0.99798583984375,-0.04876708984375,0.07666015625,0.04443359375,0.986328125,-12.4375,0.375,0.875
0.435,-2.0,-24.0,-35.0,-4.0,-1.0,-1.0,3.0,0.0,-0.0360107421875,-0.0140380859375,-0.99822998046875,-0.04595947265625,0.07421875,0.02880859375,1.00390625,-3.0625,0.75,3.8125
0.44,-15.0,13.0,8.0,1.0,1.0,3.0,-5.0,-3.0,-0.03717041015625,-0.01239013671875,-0.998291015625,-0.04388427734375,0.076171875,0.03515625,0.98193359375,1.625,-2.5625,0.25
0.445,5.0,-19.0,-24.0,-2.0,-3.0,-6.0,4.0,-2.0,-0.03997802734375,-0.01470947265625,-0.9981689453125,-0.0430908203125,0.0927734375,0.03271484375,1.00244140625,3.8125,-2.75,-1.875
0.45,2.0,19.0,18.0,6.0,-2.0,1.0,3.0,8.0,-0.04278564453125,-0.01605224609375,-0.99810791015625,-0.0426025390625,0.0791015625,0.05419921875,0.9833984375,0.25,-2.25,-0.1875
0.455,6.0,-15.0,0.0,0.0,-3.0,-2.0,-4.0,6.0,-0.04473876953125,-0.0162353515625,-0.99798583984375,-0.04248046875,0.083984375,0.0537109375,0.98828125,-0.8125,-1.0625,-1.125
0.46,-1.0,1.0,-3.0,-1.0,-2.0,-1.0,1.0,0.0,-0.04632568359375,-0.01568603515625,-0.9979248046875,-0.04278564453125,0.08740234375,0.05224609375,1.00537109375,-2.9375,-1.4375,-0.5625
0.465,1.0,-3.0,-9.0,-3.0,0.0,-1.0,0.0,-1.0,-0.04644775390625,-0.014892578125,-0.9979248046875,-0.043212890625,0.0859375,0.03466796875,0.99609375,-5.0625,0.875,-0.375
0.47,3.0,-8.0,-2.0,-2.0,-2.0,-4.0,0.0,10.0,-0.04638671875,-0.01495361328125,-0.9979248046875,-0.04302978515625,0.10107421875,0.0263671875,0.9931640625,1.625,0.875,0.6875
0.475,0.0,8.0,-4.0,-3.0,-3.0,-2.0,-1.0,1.0,-0.04522705078125,-0.0157470703125,-0.99798583984375,-0.04248046875,0.09130859375,0.037109375,0.9951171875,0.875,1.3125,0.75
0.48,-7.0,-5.0,-1.0,-1.0,3.0,1.0,1.0,-10.0,-0.0439453125,-0.013671875,-0.99810791015625,-0.04119873046875,0.08984375,0.0322265625,1.0087890625,-0.6875,2.125,1.5625
0.485,8.0,-1.0,-1.0,5.0,-3.0,-4.0,-10.0,-2.0,-0.04254150390625,-0.01214599609375,-0.9981689453125,-0.0423583984375,0.08642578125,0.03271484375,0.99365234375,-5.5,-0.625,-1.1875
0.49,4.0,-6.0,3.0,4.0,0.0,-9.0,6.0,-16.0,-0.04132080078125,-0.01318359375,-0.99822998046875,-0.0418701171875,0.076171875,0.01171875,1.01416015625,-2.0625,2.5625,2.625
0.495,0.0,17.0,-1.0,-5.0,-5.0,15.0,16.0,-14.0,-0.04107666015625,-0.0216064453125,-0.998046875,-0.0430908203125,0.09814453125,0.04345703125,1.00048828125,7.6875,2.1875,-2.125
0.5,7.0,33.0,27.0,6.0,-1.0,-5.0,7.0,-15.0,-0.037109375,-0.0224609375,-0.998046875,-0.04534912109375,0.08447265625,0.04248046875,0.99365234375,0.75,5.5,-2.0
0.505,6.0,1.0,15.0,4.0,-8.0,-19.0,-14.0,13.0,-0.03076171875,-0.0174560546875,-0.99859619140625,-0.040771484375,0.0625,0.01708984375,0.986328125,-19.75,7.125,8.4375
0.51,-53.0,-99.0,45.0,14.0,3.0,-18.0,10.0,-18.0,-0.0269775390625,-0.00634765625,-0.9989013671875,-0.03839111328125,0.06982421875,0.02099609375,1.015625,-17.0,4.25,1.5625
0.515,-15.0,-22.0,-71.0,-22.0,-19.0,-58.0,-25.0,-4.0,-0.02398681640625,0.00115966796875,-0.9990234375,-0.03778076171875,0.0498046875,-0.03759765625,1.009765625,-6.8125,-0.5625,-1.0625
0.52,5.0,5.0,107.0,70.0,10.0,-3.0,18.0,-36.0,-0.02777099609375,-0.00347900390625,-0.99896240234375,-0.0372314453125,0.02734375,0.00146484375,1.0009765625,5.6875,-6.4375,-3.0625
0.525,-11.0,-33.0,-22.0,-6.0,6.0,41.0,12.0,-19.0,-0.03045654296875,-0.0208740234375,-0.99847412109375,-0.0419921875,0.009765625,0.046875,1.02685546875,37.4375,-4.0625,-2.125
0.53,-4.0,25.0,8.0,6.0,16.0,11.0,7.0,-10.0,-0.03607177734375,-0.0357666015625,-0.99755859375,-0.04925537109375,0.095703125,0.10400390625,1.01953125,15.3125,-4.0,-8.25
0.535,-10.0,-45.0,-15.0,-9.0,-1.0,-1.0,-1.0,-2.0,-0.03289794921875,-0.03662109375,-0.99755859375,-0.04986572265625,0.06884765625,0.111328125,0.974609375,4.5,4.8125,3.75
0.54,-4.0,9.0,5.0,-2.0,-5.0,-4.0,1.0,6.0,-0.03076171875,-0.02252197265625,-0.99822998046875,-0.04608154296875,0.07666015625,0.0302734375,0.9912109375,-5.75,-0.375,0.5
0.545,8.0,43.0,14.0,-1.0,4.0,1.0,1.0,4.0,-0.03131103515625,-0.01385498046875,-0.99853515625,-0.0433349609375,0.07275390625,0.00146484375,0.99169921875,-8.125,-3.125,4.375
0.55,-6.0,-10.0,3.0,3.0,4.0,2.0,13.0,4.0,-0.0340576171875,-0.01214599609375,-0.99853515625,-0.04107666015625,0.07080078125,0.01708984375,0.98681640625,-4.125,-1.875,4.3125
0.555,8.0,46.0,20.0,2.0,21.0,9.0,8.0,4.0,-0.0357666015625,-0.01129150390625,-0.99853515625,-0.0401611328125,0.07763671875,0.03466796875,0.9892578125,0.4375,-1.5625,2.8125
0.56,-5.0,-13.0,1.0,1.0,-3.0,-4.0,-3.0,-2.0,-0.03955078125,-0.01251220703125,-0.9984130859375,-0.03900146484375,0.0810546875,0.02978515625,0.982421875,-0.6875,-4.0625,1.9375
0.565,6.0,3.0,0.0,-3.0,-5.0,-6.0,-4.0,1.0,-0.04327392578125,-0.01092529296875,-0.99835205078125,-0.0372314453125,0.08984375,0.0380859375,0.99072265625,-0.25,-1.8125,1.0
0.57,2.0,9.0,6.0,-1.0,-6.0,-3.0,-2.0,-2.0,-0.04541015625,-0.00927734375,-0.99822998046875,-0.0380859375,0.0947265625,0.02587890625,0.99365234375,-0.0625,-1.5,-1.5625
0.575,6.0,8.0,-5.0,-3.0,-4.0,-2.0,-2.0,0.0,-0.0467529296875,-0.00848388671875,-0.9981689453125,-0.03857421875,0.0888671875,0.01416015625,0.998046875,-1.875,-2.0,-0.125
0.58,2.0,31.0,14.0,6.0,0.0,-1.0,0.0,5.0,-0.0472412109375,-0.00799560546875,-0.99810791015625,-0.03875732421875,0.09716796875,0.01513671875,0.99951171875,-0.625,0.4375,-0.5
0.585,-7.0,-20.0,-4.0,-4.0,-4.0,-1.0,0.0,-1.0,-0.0469970703125,-0.006103515625,-0.9981689453125,-0.0382080078125,0.099609375,-0.001953125,0.99560546875,-0.75,1.75,1.5625
0.59,3.0,11.0,4.0,-4.0,-2.0,-1.0,-3.0,-5.0,-0.0450439453125,-0.00921630859375,-0.99822998046875,-0.03814697265625,0.09130859375,0.03271484375,0.99267578125,-4.5625,1.8125,0.8125
0.595,0.0,-5.0,-1.0,1.0,2.0,2.0,-6.0,-15.0,-0.0433349609375,-0.00927734375,-0.99835205078125,-0.03802490234375,0.09375,0.03857421875,0.98095703125,-1.875,2.6875,-1.125
0.6,-9.0,-3.0,-3.0,0.0,1.0,-1.0,-2.0,5.0,-0.0421142578125,-0.01007080078125,-0.99835205078125,-0.0390625,0.09033203125,0.03466796875,1.0029296875,-1.875,1.6875,-3.1875
0.605,6.0,-28.0,-8.0,-2.0,-4.0,-3.0,3.0,16.0,-0.04217529296875,-0.014404296875,-0.99822998046875,-0.0396728515625,0.1005859375,0.009765625,0.98681640625,-0.9375,0.25,-0.25
0.61,-12.0,-7.0,2.0,-4.0,-8.0,-3.0,10.0,-47.0,-0.04217529296875,-0.01861572265625,-0.99810791015625,-0.04119873046875,0.1005859375,0.04150390625,1.0,3.0,0.0625,-2.875
0.615,-13.0,-16.0,-13.0,4.0,4.0,8.0,26.0,-2.0,-0.0418701171875,-0.0238037109375,-0.99798583984375,-0.0423583984375,0.0810546875,0.04052734375,0.9951171875,4.5,1.5,-2.0
0.62,3.0,26.0,-33.0,-21.0,-6.0,-6.0,-4.0,-7.0,-0.0380859375,-0.0234375,-0.9981689453125,-0.0413818359375,0.083984375,0.1142578125,0.97802734375,-21.875,10.125,6.125
0.625,32.0,-2.0,34.0,10.0,17.0,-12.0,-57.0,11.0,-0.03179931640625,-0.00775146484375,-0.99884033203125,-0.03619384765625,0.08837890625,0.0537109375,0.990234375,-18.6875,6.125,2.0625
0.63,50.0,-53.0,57.0,57.0,16.0,-113.0,-105.0,23.0,-0.0289306640625,-0.00531005859375,-0.99896240234375,-0.03643798828125,0.05810546875,-0.00341796875,1.00732421875,5.25,-2.1875,-1.0
0.635,-14.0,-7.0,-38.0,-13.0,-4.0,50.0,57.0,-9.0,-0.02984619140625,-0.013671875,-0.99884033203125,-0.036376953125,0.02880859375,-0.01513671875,1.00390625,10.8125,-0.4375,1.5
0.64,-1.0,-21.0,-10.0,-1.0,-5.0,6.0,7.0,-11.0,-0.037109375,-0.0343017578125,-0.99774169921875,-0.0447998046875,0.05712890625,0.04541015625,0.9521484375,18.6875,-13.0625,-6.125
0.645,-2.0,-3.0,3.0,-3.0,-3.0,-6.0,-9.0,2.0,-0.0408935546875,-0.03204345703125,-0.99755859375,-0.04791259765625,0.0966796875,0.0302734375,0.99853515625,-2.1875,2.5,0.75
0.65,4.0,47.0,17.0,-2.0,-2.0,-3.0,-1.0,-6.0,-0.03753662109375,-0.02435302734375,-0.99798583984375,-0.04638671875,0.06982421875,0.0712890625,0.99169921875,-21.5625,2.8125,1.3125
0.655,-9.0,-46.0,-13.0,1.0,7.0,7.0,5.0,1.0,-0.03729248046875,-0.01434326171875,-0.99822998046875,-0.04437255859375,0.09814453125,0.01806640625,0.98388671875,-5.5,0.125,1.5
0.66,9.0,-1.0,1.0,0.0,3.0,-1.0,0.0,0.0,-0.03741455078125,-0.00933837890625,-0.9984130859375,-0.04241943359375,0.08349609375,0.00244140625,0.99560546875,2.3125,-0.25,2.625
0.665,4.0,-20.0,-10.0,-3.0,-9.0,-7.0,-6.0,-4.0,-0.03826904296875,-0.0081787109375,-0.99847412109375,-0.03955078125,0.07568359375,0.0224609375,0.98876953125,8.25,0.375,4.375
0.67,-4.0,28.0,6.0,-4.0,5.0,3.0,-11.0,-7.0,-0.04071044921875,-0.01025390625,-0.99835205078125,-0.04010009765625,0.068359375,0.06103515625,1.00927734375,-1.1875,-1.5,-3.0
0.675,-4.0,16.0,9.0,3.0,-5.0,-9.0,-6.0,0.0,-0.04180908203125,-0.00982666015625,-0.998291015625,-0.04071044921875,0.09228515625,0.00341796875,0.9892578125,1.6875,-1.0625,2.75
0.68,-3.0,-23.0,-1.0,3.0,2.0,-1.0,-1.0,-1.0,-0.0423583984375,-0.009765625,-0.998291015625,-0.039794921875,0.08935546875,0.02978515625,0.9921875,0.0625,0.25,0.5625
0.685,7.0,20.0,-4.0,-2.0,-8.0,-4.0,-1.0,5.0,-0.0423583984375,-0.009521484375,-0.998291015625,-0.03985595703125,0.07763671875,0.03515625,1.0048828125,1.1875,0.1875,-0.0625
0.69,-4.0,14.0,1.0,0.0,-7.0,-7.0,-5.0,-17.0,-0.0423583984375,-0.0084228515625,-0.99835205078125,-0.039306640625,0.095703125,0.0107421875,0.99609375,1.6875,0.5625,1.5625
0.695,-2.0,-15.0,-13.0,0.0,7.0,3.0,-2.0,-1.0,-0.04241943359375,-0.00927734375,-0.99835205078125,-0.0386962890625,0.08642578125,0.0205078125,1.0,2.9375,-0.5625,0.375
0.7,1.0,14.0,2.0,-3.0,-3.0,0.0,-1.0,-2.0,-0.04302978515625,-0.010009765625,-0.998291015625,-0.038818359375,0.08447265625,0.02392578125,0.998046875,1.125,0.5,0.25
0.705,12.0,15.0,-9.0,-1.0,-2.0,1.0,-2.0,1.0,-0.0421142578125,-0.01123046875,-0.99835205078125,-0.03802490234375,0.08544921875,0.0224609375,0.99072265625,1.6875,1.1875,1.3125
0.71,-10.0,3.0,7.0,1.0,4.0,-1.0,-4.0,-4.0,-0.0418701171875,-0.01226806640625,-0.99835205078125,-0.03814697265625,0.091796875,0.02880859375,0.9755859375,-0.375,-0.5625,-0.0625
0.715,-9.0,-6.0,5.0,3.0,1.0,1.0,0.0,-1.0,-0.04150390625,-0.01287841796875,-0.99835205078125,-0.037841796875,0.078125,0.01953125,0.98486328125,1.0625,-0.0625,0.0625
0.72,5.0,3.0,6.0,4.0,-1.0,2.0,2.0,-3.0,-0.0421142578125,-0.01422119140625,-0.998291015625,-0.03826904296875,0.08447265625,0.0400390625,0.99560546875,2.9375,-0.3125,-0.25
0.725,3.0,7.0,8.0,-3.0,-9.0,5.0,10.0,21.0,-0.04229736328125,-0.02197265625,-0.9981689453125,-0.03839111328125,0.09619140625,0.05712890625,0.9921875,6.9375,-0.125,-1.375
0.73,-8.0,-3.0,-5.0,-2.0,-10.0,-9.0,-11.0,-7.0,-0.03997802734375,-0.025634765625,-0.99810791015625,-0.0406494140625,0.08837890625,0.01904296875,0.99072265625,5.8125,4.0625,-1.5
0.735,-11.0,-54.0,-45.0,-5.0,-6.0,-3.0,-1.0,5.0,-0.0341796875,-0.0257568359375,-0.998291015625,-0.04010009765625,0.0966796875,0.05029296875,0.9921875,-13.0,8.375,7.4375
0.74,1.0,26.0,-12.0,-12.0,3.0,64.0,-4.0,43.0,-0.0296630859375,-0.00836181640625,-0.99896240234375,-0.03533935546875,0.08447265625,-0.00390625,1.009765625,-8.875,4.375,0.75
0.745,-70.0,24.0,4.0,1.0,-18.0,37.0,39.0,-128.0,-0.0277099609375,-0.0146484375,-0.9989013671875,-0.03509521484375,0.02197265625,0.078125,0.9853515625,15.8125,-3.1875,-0.4375
0.75,-18.0,18.0,-40.0,-19.0,10.0,21.0,-23.0,-50.0,-0.03033447265625,-0.02349853515625,-0.99871826171875,-0.034912109375,0.048828125,0.06201171875,1.02587890625,9.625,-3.4375,-7.75
0.755,2.0,10.0,11.0,5.0,1.0,15.0,32.0,9.0,-0.0367431640625,-0.031494140625,-0.998046875,-0.04058837890625,0.099609375,0.10302734375,0.99853515625,2.5625,-9.1875,-11.0625
0.76,-5.0,-39.0,-13.0,-1.0,12.0,3.0,-4.0,-4.0,-0.04071044921875,-0.033447265625,-0.99755859375,-0.0458984375,0.087890625,0.07275390625,0.97705078125,2.75,-0.5625,0.375
0.765,-11.0,-21.0,-4.0,0.0,-6.0,-5.0,-2.0,-2.0,-0.03973388671875,-0.02587890625,-0.9979248046875,-0.04400634765625,0.08984375,0.06103515625,0.984375,-3.25,-0.4375,2.0
0.77,-4.0,15.0,5.0,-2.0,-2.0,-3.0,-5.0,-7.0,-0.0396728515625,-0.0150146484375,-0.9981689453125,-0.04400634765625,0.08935546875,0.001953125,0.99853515625,-6.875,-1.0625,0.6875
0.775,6.0,28.0,15.0,3.0,-2.0,-1.0,6.0,-5.0,-0.04046630859375,-0.00958251953125,-0.99822998046875,-0.04351806640625,0.07666015625,0.0078125,1.001953125,-6.0,-0.375,1.25
0.78,-12.0,-10.0,-14.0,-1.0,-1.0,0.0,1.0,0.0,-0.04205322265625,-0.008056640625,-0.9981689453125,-0.04364013671875,0.09814453125,-0.0263671875,0.994140625,-1.6875,-3.4375,1.25
0.785,7.0,7.0,2.0,-2.0,-6.0,-2.0,0.0,4.0,-0.04632568359375,-0.00982666015625,-0.99798583984375,-0.043212890625,0.0927734375,0.04736328125,0.9912109375,3.1875,-4.3125,2.125
0.79,-4.0,-39.0,4.0,2.0,0.0,-3.0,-4.0,-2.0,-0.05084228515625,-0.009033203125,-0.99774169921875,-0.04425048828125,0.11474609375,0.02734375,0.99951171875,1.9375,-2.1875,-1.375
0.795,-5.0,30.0,4.0,1.0,17.0,6.0,-4.0,-4.0,-0.05242919921875,-0.00848388671875,-0.99761962890625,-0.04412841796875,0.1005859375,0.02490234375,1.00732421875,-1.0,-0.125,0.4375
0.8,0.0,5.0,-2.0,-3.0,2.0,0.0,-3.0,1.0,-0.0528564453125,-0.00689697265625,-0.99761962890625,-0.0443115234375,0.1025390625,0.001953125,1.0,-1.25,-0.0625,1.0625
0.805,3.0,13.0,-5.0,-3.0,-7.0,-7.0,9.0,-3.0,-0.0526123046875,-0.00653076171875,-0.9976806640625,-0.04412841796875,0.10888671875,0.009765625,0.99267578125,-2.625,0.8125,0.1875
0.81,5.0,-10.0,-9.0,-1.0,-1.0,-2.0,-2.0,4.0,-0.05224609375,-0.0057373046875,-0.99774169921875,-0.043212890625,0.1123046875,0.005859375,0.99267578125,0.125,-0.875,1.6875
0.815,-6.0,-3.0,7.0,-1.0,-3.0,0.0,11.0,-2.0,-0.052734375,-0.007568359375,-0.997802734375,-0.04083251953125,0.1162109375,0.02880859375,1.0087890625,2.75,2.5625,1.4375
0.82,7.0,29.0,8.0,1.0,-5.0,-3.0,-1.0,6.0,-0.05206298828125,-0.007568359375,-0.997802734375,-0.04168701171875,0.1083984375,0.009765625,0.984375,4.625,-0.25,0.3125
0.825,-23.0,8.0,-15.0,-6.0,1.0,9.0,9.0,-6.0,-0.05059814453125,-0.01458740234375,-0.99774169921875,-0.04315185546875,0.0986328125,0.0439453125,0.99560546875,5.75,2.5,-3.0
0.83,3.0,-1.0,17.0,9.0,2.0,-3.0,-3.0,7.0,-0.049560546875,-0.01898193359375,-0.99761962890625,-0.0450439453125,0.10498046875,0.06884765625,0.9833984375,6.1875,2.8125,-3.75
0.835,9.0,-9.0,2.0,-1.0,-5.0,5.0,2.0,3.0,-0.04815673828125,-0.02362060546875,-0.99755859375,-0.0458984375,0.09765625,0.07958984375,0.99658203125,3.75,2.6875,-3.9375
0.84,-21.0,-71.0,-27.0,-10.0,2.0,23.0,10.0,-15.0,-0.04364013671875,-0.02459716796875,-0.997802734375,-0.04400634765625,0.095703125,0.078125,0.9853515625,-7.75,5.4375,7.4375
0.845,-41.0,-31.0,-114.0,-17.0,3.0,-99.0,-110.0,-85.0,-0.0401611328125,-0.0145263671875,-0.99835205078125,-0.03985595703125,0.08056640625,0.03857421875,1.0029296875,-5.875,3.0625,1.9375
0.85,-40.0,-92.0,4.0,24.0,23.0,-38.0,-55.0,-117.0,-0.03985595703125,-0.0072021484375,-0.99847412109375,-0.0389404296875,0.09130859375,0.02685546875,0.99365234375,-6.6875,-0.9375,-0.375
0.855,16.0,-7.0,-21.0,-9.0,23.0,68.0,44.0,48.0,-0.0419921875,-0.00927734375,-0.998291015625,-0.04052734375,0.0751953125,0.001953125,1.00390625,3.3125,-2.1875,-2.0
0.86,-15.0,13.0,1.0,-1.0,-2.0,-18.0,-19.0,0.0,-0.0430908203125,-0.018798828125,-0.99798583984375,-0.04345703125,0.06787109375,0.14794921875,1.01025390625,4.125,-3.875,-7.0625
0.865,-8.0,8.0,-2.0,-5.0,6.0,7.0,-1.0,-5.0,-0.04925537109375,-0.03131103515625,-0.99700927734375,-0.0513916015625,0.1298828125,0.09033203125,0.99267578125,8.75,-1.25,-6.125
0.87,-16.0,-40.0,-18.0,-10.0,-15.0,-6.0,-10.0,-8.0,-0.04766845703125,-0.0233154296875,-0.99737548828125,-0.05047607421875,0.09814453125,0.0908203125,0.98974609375,-10.8125,2.5,1.25
0.875,2.0,-10.0,-8.0,-8.0,7.0,0.0,-3.0,-2.0,-0.04510498046875,-0.00897216796875,-0.997802734375,-0.04840087890625,0.0986328125,0.03662109375,0.9951171875,-7.375,2.3125,1.1875
0.88,0.0,20.0,4.0,-1.0,-3.0,3.0,-5.0,2.0,-0.0443115234375,-0.00274658203125,-0.9979248046875,-0.0467529296875,0.0927734375,-0.01025390625,0.9873046875,-2.125,-1.25,2.5625
0.885,1.0,13.0,2.0,-2.0,-3.0,0.0,2.0,0.0,-0.04547119140625,-0.0029296875,-0.9979248046875,-0.046630859375,0.09375,0.01171875,0.99951171875,4.6875,-1.0625,0.375
0.89,-5.0,0.0,9.0,3.0,7.0,5.0,-3.0,-5.0,-0.04852294921875,-0.00457763671875,-0.997802734375,-0.0462646484375,0.10400390625,0.00927734375,0.9951171875,6.9375,-2.5625,0.25
0.895,0.0,0.0,0.0,-5.0,-2.0,-5.0,-1.0,4.0,-0.051513671875,-0.0029296875,-0.9976806640625,-0.0457763671875,0.10693359375,-0.001953125,1.00146484375,3.625,-1.125,2.0625
0.9,7.0,24.0,-5.0,-2.0,-7.0,-4.0,13.0,-1.0,-0.05328369140625,-0.0032958984375,-0.99755859375,-0.046142578125,0.10498046875,0.00830078125,1.00146484375,0.0625,0.3125,-0.75
0.905,-1.0,-3.0,-19.0,-2.0,0.0,4.0,-15.0,-4.0,-0.0518798828125,-0.00360107421875,-0.99761962890625,-0.04583740234375,0.1044921875,0.0126953125,1.00341796875,1.6875,1.1875,0.8125
0.91,8.0,2.0,1.0,-2.0,-1.0,-2.0,-1.0,-2.0,-0.05133056640625,-0.00323486328125,-0.9976806640625,-0.04571533203125,0.111328125,-0.017578125,0.986328125,-0.875,0.5,1.0625
0.915,2.0,8.0,-1.0,1.0,8.0,2.0,-3.0,0.0,-0.05059814453125,-0.002197265625,-0.9976806640625,-0.0457763671875,0.1044921875,0.00146484375,0.99658203125,-1.1875,0.6875,1.0
0.92,1.0,0.0,2.0,-6.0,-2.0,-2.0,-1.0,1.0,-0.05108642578125,-0.0018310546875,-0.99774169921875,-0.04425048828125,0.1142578125,-0.0166015625,0.986328125,2.625,0.25,3.125
0.925,2.0,-8.0,-7.0,-4.0,-2.0,-1.0,-3.0,-1.0,-0.05059814453125,-0.0028076171875,-0.997802734375,-0.04364013671875,0.10009765625,0.02685546875,0.99267578125,4.5,-0.375,-0.9375
0.93,5.0,-6.0,-1.0,-4.0,-5.0,-4.0,-6.0,2.0,-0.05035400390625,-0.00274658203125,-0.997802734375,-0.044189453125,0.119140625,-0.03466796875,1.00341796875,7.625,1.3125,2.1875
0.935,-3.0,-1.0,-1.0,1.0,-2.0,4.0,-1.0,0.0,-0.04925537109375,-0.006103515625,-0.99774169921875,-0.0460205078125,0.11181640625,-0.001953125,0.9990234375,-0.0625,-0.25,-0.6875
0.94,23.0,46.0,2.0,0.0,3.0,-4.0,3.0,13.0,-0.049560546875,-0.01007080078125,-0.99761962890625,-0.04718017578125,0.09814453125,-0.009765625,1.001953125,-1.1875,0.125,-0.1875
0.945,19.0,24.0,18.0,11.0,5.0,26.0,39.0,-8.0,-0.04864501953125,-0.0145263671875,-0.99755859375,-0.0489501953125,0.10302734375,0.02392578125,0.9912109375,0.375,3.8125,0.4375
0.95,18.0,65.0,17.0,1.0,-2.0,14.0,9.0,34.0,-0.0443115234375,-0.0087890625,-0.99798583984375,-0.04547119140625,0.11328125,-0.0068359375,1.00390625,-9.0,4.25,3.6875
0.955,-37.0,-48.0,-58.0,-20.0,-7.0,-101.0,-128.0,-46.0,-0.04156494140625,0.0048828125,-0.9981689453125,-0.04498291015625,0.1044921875,-0.037109375,0.982421875,-3.875,3.3125,-1.1875
0.96,9.0,26.0,-71.0,-37.0,14.0,-70.0,-128.0,-44.0,-0.04010009765625,0.00567626953125,-0.998291015625,-0.0433349609375,0.0380859375,0.0390625,1.0,-2.4375,-0.8125,0.5
0.965,-11.0,16.0,35.0,20.0,52.0,76.0,73.0,-18.0,-0.04388427734375,0.0048828125,-0.99798583984375,-0.0467529296875,0.07421875,-0.04736328125,1.02880859375,6.25,-1.75,-3.0625
0.97,0.0,17.0,-2.0,0.0,-7.0,-7.0,0.0,11.0,-0.0501708984375,-0.0164794921875,-0.99725341796875,-0.05303955078125,0.08349609375,0.0537109375,0.9443359375,12.125,-11.25,-8.5625
0.975,-6.0,5.0,-1.0,5.0,0.0,0.0,3.0,-1.0,-0.05242919921875,-0.018310546875,-0.996826171875,-0.0574951171875,0.11572265625,0.04638671875,0.98974609375,2.9375,6.75,-0.4375
0.98,17.0,24.0,12.0,0.0,-3.0,-1.0,-8.0,10.0,-0.04742431640625,-0.00616455078125,-0.9974365234375,-0.0537109375,0.11572265625,-0.033203125,0.986328125,-8.4375,1.875,2.75
0.985,-17.0,-26.0,-14.0,-2.0,3.0,3.0,1.0,-1.0,-0.04559326171875,0.00177001953125,-0.9976806640625,-0.051513671875,0.0986328125,-0.0029296875,1.00048828125,-5.4375,0.25,3.5625
0.99,-12.0,-93.0,-18.0,-6.0,4.0,3.0,-3.0,-6.0,-0.0465087890625,0.001708984375,-0.9976806640625,-0.0504150390625,0.09375,0.01171875,0.99072265625,-1.375,-0.875,1.75
0.995,-10.0,-16.0,-10.0,-3.0,0.0,-1.0,5.0,6.0,-0.04913330078125,0.000244140625,-0.99755859375,-0.05029296875,0.09423828125,-0.0107421875,0.99853515625,-1.0,-3.125,-1.375
1.0,-18.0,-73.0,-10.0,0.0,-4.0,-5.0,-3.0,-6.0,-0.05328369140625,-0.0020751953125,-0.99725341796875,-0.0523681640625,0.11767578125,0.02392578125,0.99462890625,-3.5625,-3.8125,-1.75
1.005,4.0,5.0,1.0,2.0,-7.0,-5.0,-7.0,4.0,-0.05548095703125,-0.001220703125,-0.9971923828125,-0.05133056640625,0.11572265625,0.0107421875,0.99609375,0.1875,-0.5,1.375
1.01,-3.0,18.0,20.0,2.0,-1.0,4.0,-2.0,-6.0,-0.0550537109375,-0.00030517578125,-0.9971923828125,-0.05096435546875,0.11572265625,0.0087890625,1.0009765625,-0.25,0.625,-0.4375
1.015,-5.0,3.0,-13.0,-7.0,-2.0,-2.0,-2.0,-5.0,-0.0546875,-0.00030517578125,-0.99725341796875,-0.05096435546875,0.111328125,0.0146484375,1.00048828125,-0.8125,1.3125,-0.4375
1.02,1.0,-5.0,5.0,1.0,0.0,2.0,-2.0,-3.0,-0.0533447265625,-0.0003662109375,-0.99737548828125,-0.04931640625,0.10693359375,0.00048828125,0.99267578125,2.6875,1.3125,1.8125
1.025,-5.0,-14.0,-17.0,-10.0,-2.0,2.0,-5.0,-23.0,-0.05255126953125,-0.00250244140625,-0.9974365234375,-0.04876708984375,0.11376953125,0.0166015625,1.00048828125,-1.5625,-0.625,-3.0625
1.03,-2.0,-20.0,3.0,5.0,-1.0,-4.0,-15.0,3.0,-0.0513916015625,-0.00457763671875,-0.99755859375,-0.0472412109375,0.10302734375,0.02490234375,0.99169921875,8.0,2.5,-0.4375
1.035,-12.0,-18.0,-7.0,-3.0,-2.0,1.0,8.0,0.0,-0.05108642578125,-0.0068359375,-0.99755859375,-0.0479736328125,0.1044921875,0.01611328125,0.99560546875,8.1875,0.625,-0.9375
1.04,6.0,12.0,6.0,-1.0,3.0,-7.0,-22.0,-7.0,-0.0523681640625,-0.0159912109375,-0.99737548828125,-0.04864501953125,0.109375,0.07666015625,0.99609375,8.625,0.3125,-3.875
1.045,0.0,-1.0,10.0,8.0,-4.0,-28.0,-71.0,6.0,-0.0491943359375,-0.0208740234375,-0.997314453125,-0.05126953125,0.1025390625,0.0224609375,1.00244140625,12.125,4.0625,-4.5625
1.05,18.0,27.0,-39.0,-38.0,-11.0,1.0,27.0,-15.0,-0.04217529296875,-0.0185546875,-0.9979248046875,-0.0455322265625,0.09130859375,0.00146484375,0.974609375,-25.875,5.625,8.1875
1.055,-13.0,-14.0,-11.0,-9.0,-9.0,61.0,50.0,1.0,-0.0372314453125,0.00177001953125,-0.998291015625,-0.046142578125,0.05322265625,-0.01171875,1.0087890625,-5.875,2.625,-3.625
1.06,-20.0,33.0,-57.0,-41.0,-16.0,-12.0,-10.0,-73.0,-0.040771484375,0.00469970703125,-0.99798583984375,-0.0489501953125,0.09033203125,-0.00732421875,1.017578125,-7.9375,-6.625,0.875
1.065,-2.0,3.0,-51.0,-31.0,-9.0,-26.0,-69.0,-14.0,-0.043212890625,0.00067138671875,-0.997802734375,-0.05035400390625,0.080078125,0.0107421875,1.0126953125,11.0625,-1.6875,-5.3125
1.07,9.0,-5.0,22.0,2.0,5.0,-4.0,-4.0,4.0,-0.050048828125,-0.015380859375,-0.99700927734375,-0.05743408203125,0.11474609375,0.03076171875,0.9833984375,6.1875,-5.25,-11.1875
1.075,-18.0,-3.0,7.0,7.0,-13.0,-2.0,-14.0,2.0,-0.0482177734375,-0.0140380859375,-0.9971923828125,-0.05633544921875,0.09228515625,0.029296875,0.98193359375,-9.1875,5.25,4.25
1.08,-16.0,-32.0,-28.0,-7.0,-18.0,-11.0,-3.0,0.0,-0.04473876953125,-0.00299072265625,-0.99749755859375,-0.05548095703125,0.10498046875,0.01953125,0.978515625,-8.4375,2.6875,-0.75
1.085,9.0,14.0,9.0,2.0,-3.0,-4.0,-8.0,4.0,-0.04364013671875,0.00341796875,-0.99755859375,-0.055419921875,0.1015625,-0.017578125,1.001953125,0.375,-0.5625,0.6875
1.09,-14.0,-46.0,-9.0,-5.0,2.0,3.0,1.0,-4.0,-0.045166015625,0.0048828125,-0.99749755859375,-0.05523681640625,0.09033203125,-0.01708984375,1.00732421875,0.875,-2.1875,-0.4375
1.095,-7.0,-6.0,8.0,6.0,16.0,12.0,6.0,4.0,-0.04937744140625,0.00054931640625,-0.997314453125,-0.05511474609375,0.09326171875,0.00732421875,0.98876953125,0.0,-5.0,-0.9375
1.1,4.0,-6.0,-17.0,0.0,0.0,-2.0,2.0,2.0,-0.05413818359375,0.0023193359375,-0.99700927734375,-0.05548095703125,0.12646484375,0.0341796875,1.0009765625,-6.3125,-2.1875,-2.1875
1.105,2.0,17.0,11.0,2.0,0.0,1.0,-3.0,1.0,-0.05609130859375,0.00244140625,-0.9969482421875,-0.05499267578125,0.11083984375,0.02783203125,0.998046875,-1.4375,-0.625,-1.0
1.11,0.0,20.0,-2.0,-3.0,-4.0,0.0,-4.0,-8.0,-0.05657958984375,0.0047607421875,-0.9969482421875,-0.05413818359375,0.1201171875,-0.013671875,0.99365234375,-2.6875,0.0,1.0625
1.115,-2.0,-16.0,2.0,5.0,8.0,4.0,3.0,0.0,-0.05657958984375,0.005126953125,-0.9969482421875,-0.05438232421875,0.11962890625,-0.0087890625,0.9990234375,-1.4375,0.5625,-0.4375
1.12,4.0,22.0,9.0,1.0,-1.0,3.0,1.0,4.0,-0.05645751953125,0.005126953125,-0.9969482421875,-0.0543212890625,0.1171875,0.00048828125,0.9931640625,-0.625,0.0625,-0.125
1.125,-5.0,0.0,6.0,-1.0,0.0,-3.0,-12.0,0.0,-0.05615234375,0.0057373046875,-0.9969482421875,-0.0540771484375,0.1162109375,0.00537109375,0.99267578125,0.4375,-0.375,-0.75
1.13,4.0,7.0,-1.0,0.0,-1.0,1.0,2.0,2.0,-0.05523681640625,0.00445556640625,-0.9970703125,-0.05364990234375,0.10791015625,0.02001953125,0.99560546875,3.5,2.625,-1.0
1.135,4.0,-7.0,-4.0,-1.0,-2.0,1.0,3.0,1.0,-0.05291748046875,0.002197265625,-0.99713134765625,-0.05438232421875,0.09765625,0.0185546875,0.98681640625,-1.0625,2.5625,-3.0625
1.14,2.0,2.0,-11.0,-4.0,0.0,1.0,-3.0,-5.0,-0.0518798828125,-0.00164794921875,-0.99713134765625,-0.0552978515625,0.11474609375,0.029296875,0.98876953125,3.0625,2.75,-2.3125
1.145,4.0,24.0,-8.0,-2.0,5.0,9.0,-3.0,-9.0,-0.05108642578125,-0.004638671875,-0.99713134765625,-0.05657958984375,0.10986328125,0.00537109375,0.99072265625,9.1875,1.125,-3.0625
1.15,-4.0,-9.0,-9.0,-2.0,3.0,16.0,28.0,10.0,-0.05035400390625,-0.0133056640625,-0.99700927734375,-0.05755615234375,0.1064453125,0.00048828125,0.96728515625,7.8125,1.6875,3.375
1.155,-3.0,40.0,-8.0,-3.0,-3.0,-17.0,-16.0,-6.0,-0.04388427734375,-0.0018310546875,-0.9976806640625,-0.05291748046875,0.0888671875,-0.04296875,0.98779296875,-13.0625,3.5625,3.9375
1.16,-9.0,47.0,-49.0,-15.0,-6.0,-40.0,-95.0,-96.0,-0.042724609375,0.0133056640625,-0.99761962890625,-0.05340576171875,0.10302734375,0.0458984375,0.962890625,-14.75,3.4375,-2.1875
1.165,2.0,23.0,67.0,4.0,-13.0,-60.0,-82.0,-61.0,-0.043212890625,0.01898193359375,-0.99737548828125,-0.05560302734375,0.07275390625,-0.056640625,0.99365234375,-3.625,-4.375,-0.8125
1.17,41.0,43.0,-1.0,-8.0,-41.0,-107.0,-69.0,-11.0,-0.04559326171875,0.01666259765625,-0.9971923828125,-0.05731201171875,0.06494140625,-0.00537109375,1.01220703125,5.25,-2.6875,-2.8125
1.175,-5.0,10.0,1.0,0.0,0.0,2.0,-10.0,-30.0,-0.0484619140625,6.103515625e-05,-0.9969482421875,-0.06170654296875,0.11669921875,0.00146484375,1.00341796875,13.75,-6.4375,-1.4375
1.18,-27.0,-2.0,2.0,2.0,1.0,3.0,-2.0,-9.0,-0.0518798828125,-0.01300048828125,-0.99652099609375,-0.0648193359375,0.10986328125,0.0302734375,0.9814453125,5.0625,3.9375,-0.875
1.185,10.0,49.0,28.0,5.0,-1.0,-1.0,-6.0,-3.0,-0.04852294921875,-0.007080078125,-0.99688720703125,-0.0621337890625,0.1025390625,0.02294921875,0.97705078125,-13.8125,2.9375,3.125
1.19,-13.0,-35.0,-7.0,-6.0,-1.0,-3.0,-6.0,-4.0,-0.0482177734375,0.0010986328125,-0.9970703125,-0.060302734375,0.115234375,-0.00830078125,0.98291015625,-4.4375,0.0625,2.125
1.195,-8.0,7.0,-2.0,1.0,13.0,-1.0,-12.0,1.0,-0.04901123046875,0.00494384765625,-0.99713134765625,-0.05828857421875,0.10498046875,-0.015625,0.990234375,-0.625,-2.1875,1.8125
1.2,6.0,8.0,3.0,-5.0,0.0,0.0,-3.0,-6.0,-0.05157470703125,0.0050048828125,-0.99700927734375,-0.058349609375,0.10107421875,0.013671875,1.00048828125,1.4375,-2.375,-1.1875
1.205,1.0,74.0,20.0,0.0,10.0,8.0,-2.0,-3.0,-0.05487060546875,0.0037841796875,-0.996826171875,-0.05804443359375,0.11181640625,-0.0029296875,0.98095703125,0.6875,-4.25,-2.5
1.21,10.0,-10.0,-7.0,0.0,0.0,1.0,-6.0,-2.0,-0.05828857421875,0.00445556640625,-0.99658203125,-0.058837890625,0.1201171875,0.0185546875,0.9912109375,-1.0,-1.4375,-1.9375
1.215,1.0,6.0,3.0,3.0,-8.0,0.0,0.0,-1.0,-0.06005859375,0.0050048828125,-0.99652099609375,-0.05816650390625,0.12744140625,0.0,0.99267578125,0.9375,-0.4375,-0.3125
1.22,-5.0,-7.0,2.0,-2.0,-3.0,-4.0,-3.0,-1.0,-0.05938720703125,0.0057373046875,-0.99652099609375,-0.058349609375,0.12060546875,0.00439453125,0.98486328125,0.1875,1.25,-0.75
1.225,4.0,-5.0,-5.0,-3.0,-2.0,1.0,1.0,4.0,-0.059326171875,0.006103515625,-0.99652099609375,-0.05828857421875,0.11962890625,-0.00146484375,0.98974609375,-0.3125,0.6875,-0.0625
1.23,-9.0,8.0,6.0,2.0,-5.0,-4.0,-2.0,-3.0,-0.0587158203125,0.00762939453125,-0.99664306640625,-0.05718994140625,0.11328125,-0.005859375,0.98779296875,-0.3125,0.875,1.0
1.235,0.0,-8.0,-1.0,-3.0,3.0,0.0,0.0,-3.0,-0.05780029296875,0.0081787109375,-0.99676513671875,-0.05584716796875,0.11279296875,0.0107421875,0.99853515625,-4.25,0.75,1.0
1.24,-10.0,2.0,3.0,2.0,5.0,3.0,-1.0,-16.0,-0.0560302734375,0.0068359375,-0.99688720703125,-0.055419921875,0.12548828125,0.0107421875,0.9990234375,5.75,0.9375,-1.375
1.245,-8.0,-7.0,-8.0,-2.0,7.0,4.0,14.0,-8.0,-0.0533447265625,0.0040283203125,-0.9970703125,-0.0557861328125,0.11279296875,0.0078125,0.99169921875,-1.375,3.875,-0.8125
1.25,-7.0,14.0,3.0,-1.0,1.0,-1.0,-2.0,5.0,-0.052978515625,-0.0013427734375,-0.9970703125,-0.05596923828125,0.10888671875,-0.00439453125,0.984375,7.375,-1.0,-0.5625
1.255,11.0,34.0,8.0,-4.0,-12.0,-8.0,-10.0,-6.0,-0.05206298828125,-0.00408935546875,-0.99700927734375,-0.05712890625,0.103515625,-0.00634765625,0.99951171875,2.25,2.75,0.25
1.26,1.0,4.0,-5.0,-8.0,-5.0,-39.0,-39.0,15.0,-0.05096435546875,-0.011474609375,-0.99700927734375,-0.057861328125,0.10791015625,0.02783203125,0.99755859375,9.0,1.875,-0.75
1.265,-33.0,-30.0,22.0,19.0,8.0,35.0,33.0,-39.0,-0.04461669921875,-0.008544921875,-0.99755859375,-0.05389404296875,0.07763671875,0.0263671875,0.97607421875,-20.375,8.0,8.3125
1.27,18.0,1.0,-33.0,-19.0,7.0,-37.0,-63.0,-22.0,-0.0389404296875,0.00177001953125,-0.99798583984375,-0.05096435546875,0.06982421875,-0.01123046875,1.00732421875,-9.4375,4.0,0.75
1.275,-34.0,42.0,-36.0,-1.0,13.0,-67.0,-83.0,-66.0,-0.03955078125,0.00433349609375,-0.99786376953125,-0.0523681640625,0.08447265625,-0.0322265625,1.021484375,9.1875,-2.3125,0.75
1.28,-4.0,3.0,-1.0,8.0,23.0,-3.0,-3.0,-13.0,-0.0445556640625,-0.0035400390625,-0.99749755859375,-0.05517578125,0.0712890625,0.04296875,1.046875,18.5,-7.125,-7.0625
1.285,-1.0,-9.0,-2.0,1.0,1.0,5.0,-9.0,-6.0,-0.05145263671875,-0.01214599609375,-0.996826171875,-0.06005859375,0.13916015625,0.0830078125,1.0439453125,-2.25,-2.1875,-7.9375
1.29,-1.0,-39.0,-26.0,-8.0,-8.0,-7.0,-7.0,-9.0,-0.0506591796875,-0.01458740234375,-0.9967041015625,-0.06219482421875,0.10302734375,0.009765625,0.9765625,-0.625,2.5625,1.8125
1.295,1.0,22.0,12.0,-2.0,-7.0,-6.0,0.0,-5.0,-0.048095703125,-0.01104736328125,-0.99700927734375,-0.06024169921875,0.09765625,0.04345703125,0.990234375,-4.625,4.0625,0.125
1.3,-15.0,39.0,0.0,-1.0,-1.0,-4.0,-11.0,-5.0,-0.04681396484375,-0.00347900390625,-0.99725341796875,-0.05767822265625,0.09521484375,0.00341796875,0.99462890625,-1.875,0.8125,3.4375
1.305,-3.0,-41.0,7.0,2.0,0.0,0.0,18.0,6.0,-0.0457763671875,6.103515625e-05,-0.9974365234375,-0.05548095703125,0.0927734375,-0.02099609375,0.99072265625,-4.125,-0.0625,2.5625
1.31,0.0,1.0,-5.0,-1.0,-5.0,-1.0,6.0,-2.0,-0.047607421875,-0.0013427734375,-0.9974365234375,-0.0537109375,0.099609375,-0.0048828125,0.99462890625,3.25,-3.0625,1.0
1.315,7.0,10.0,-13.0,-5.0,-8.0,-2.0,3.0,6.0,-0.0509033203125,-0.0010986328125,-0.997314453125,-0.0533447265625,0.11865234375,0.00048828125,0.98876953125,-0.875,-2.8125,1.5
1.32,1.0,-17.0,-11.0,-2.0,-3.0,-1.0,1.0,0.0,-0.0531005859375,-0.00103759765625,-0.9971923828125,-0.05303955078125,0.11376953125,0.02294921875,1.00634765625,-2.75,-1.4375,-0.875
1.325,-4.0,-5.0,-2.0,1.0,-1.0,0.0,0.0,0.0,-0.05401611328125,0.00018310546875,-0.9971923828125,-0.0521240234375,0.1083984375,-0.00537109375,0.98974609375,-1.4375,0.0625,2.0625
1.33,-5.0,-6.0,-3.0,-1.0,5.0,2.0,-2.0,1.0,-0.0540771484375,0.0006103515625,-0.9971923828125,-0.052001953125,0.115234375,-0.00537109375,0.994140625,-1.0625,0.6875,0.5625
1.335,0.0,-10.0,-11.0,-5.0,-5.0,-4.0,-4.0,-7.0,-0.0533447265625,0.0006103515625,-0.99725341796875,-0.0523681640625,0.10400390625,0.01318359375,0.998046875,0.0,0.875,-0.5
1.34,1.0,-7.0,-4.0,-7.0,-2.0,-2.0,-1.0,-9.0,-0.0531005859375,0.00140380859375,-0.99725341796875,-0.0523681640625,0.1083984375,-0.00732421875,0.99560546875,-2.0625,0.5625,0.125
1.345,4.0,4.0,5.0,1.0,7.0,3.0,-1.0,-5.0,-0.05267333984375,0.00201416015625,-0.997314453125,-0.0518798828125,0.10693359375,0.00439453125,0.99365234375,-0.1875,0.875,0.5
1.35,-2.0,-2.0,-6.0,-4.0,-2.0,4.0,5.0,-6.0,-0.0523681640625,0.0003662109375,-0.99737548828125,-0.0511474609375,0.1103515625,-0.0126953125,1.00146484375,-0.25,1.125,0.1875
1.355,1.0,-7.0,-5.0,-2.0,0.0,3.0,-1.0,-8.0,-0.0516357421875,-0.0030517578125,-0.99737548828125,-0.0509033203125,0.09814453125,-0.015625,0.98828125,1.4375,2.1875,2.375
1.36,-6.0,0.0,1.0,0.0,8.0,-7.0,-3.0,-25.0,-0.05023193359375,-0.00927734375,-0.997314453125,-0.05316162109375,0.1015625,0.0439453125,0.9931640625,1.6875,2.3125,-2.9375
1.365,-2.0,-16.0,-16.0,-7.0,-6.0,-6.0,-15.0,-5.0,-0.0487060546875,-0.01312255859375,-0.99725341796875,-0.05511474609375,0.10009765625,0.0400390625,0.98193359375,3.5625,2.375,-3.0
1.37,-4.0,20.0,20.0,0.0,-2.0,45.0,110.0,-24.0,-0.04571533203125,-0.01409912109375,-0.99737548828125,-0.0545654296875,0.09521484375,0.05517578125,0.97265625,-1.25,6.0625,2.875
1.375,49.0,7.0,23.0,19.0,16.0,89.0,105.0,61.0,-0.03948974609375,-0.00262451171875,-0.99798583984375,-0.05010986328125,0.07421875,0.013671875,0.9912109375,-9.8125,3.75,2.375
1.38,12.0,-28.0,34.0,17.0,-1.0,39.0,26.0,-12.0,-0.03424072265625,0.007568359375,-0.99822998046875,-0.04833984375,0.08349609375,0.0078125,0.994140625,-12.5,3.875,1.25
1.385,60.0,79.0,30.0,-6.0,-4.0,-19.0,-36.0,17.0,-0.0330810546875,0.0091552734375,-0.998291015625,-0.04791259765625,0.072265625,-0.02392578125,1.001953125,-2.5625,1.3125,2.6875
1.39,-16.0,6.0,34.0,1.0,-15.0,14.0,38.0,-20.0,-0.0340576171875,0.0093994140625,-0.9981689453125,-0.050048828125,0.08251953125,-0.001953125,0.9990234375,0.6875,-2.625,-5.125
1.395,10.0,-3.0,-8.0,-1.0,-1.0,6.0,20.0,1.0,-0.039794921875,-0.010986328125,-0.99761962890625,-0.05633544921875,0.0556640625,-0.01904296875,0.95654296875,17.625,-9.625,-5.8125
1.4,5.0,-31.0,-4.0,8.0,12.0,5.0,-7.0,0.0,-0.04541015625,-0.016845703125,-0.9970703125,-0.0601806640625,0.09521484375,-0.00634765625,0.99853515625,4.3125,-0.0625,-0.125
1.405,11.0,45.0,13.0,3.0,-6.0,-2.0,-3.0,3.0,-0.0439453125,-0.0174560546875,-0.9971923828125,-0.0589599609375,0.09765625,0.05810546875,0.98193359375,-8.4375,1.5,0.5625
1.41,-8.0,-11.0,1.0,-2.0,-3.0,-1.0,1.0,-1.0,-0.04254150390625,-0.0078125,-0.9974365234375,-0.05743408203125,0.09375,0.0224609375,0.98681640625,-10.0625,0.1875,1.5
1.415,-23.0,-27.0,-6.0,-1.0,7.0,1.0,-5.0,-10.0,-0.043212890625,-0.0023193359375,-0.99755859375,-0.055419921875,0.0986328125,-0.02001953125,0.98388671875,-2.9375,-1.25,2.0625
1.42,9.0,16.0,-1.0,1.0,-6.0,-2.0,-2.0,2.0,-0.04437255859375,-0.000244140625,-0.99755859375,-0.054443359375,0.0966796875,-0.0009765625,0.9951171875,0.875,-2.0625,0.9375
1.425,-30.0,-41.0,-34.0,-7.0,-5.0,0.0,1.0,-3.0,-0.04803466796875,-0.00250244140625,-0.9974365234375,-0.0540771484375,0.10107421875,0.01708984375,0.9912109375,2.4375,-2.6875,-0.25
1.43,-5.0,-18.0,-5.0,-2.0,1.0,-3.0,-10.0,-4.0,-0.04998779296875,-0.001220703125,-0.997314453125,-0.0546875,0.1025390625,-0.00341796875,0.99853515625,-1.9375,-2.1875,0.625
1.435,9.0,30.0,17.0,0.0,14.0,6.0,1.0,6.0,-0.051513671875,-6.103515625e-05,-0.99725341796875,-0.0540771484375,0.1064453125,-0.02880859375,1.00634765625,-2.9375,-1.5,2.1875
1.44,-2.0,-12.0,-9.0,1.0,5.0,4.0,-2.0,-10.0,-0.051513671875,0.00054931640625,-0.99725341796875,-0.05328369140625,0.10546875,-0.00390625,1.00244140625,-1.4375,0.8125,1.1875
1.445,-5.0,-6.0,-1.0,5.0,3.0,2.0,3.0,-1.0,-0.0511474609375,0.00048828125,-0.997314453125,-0.05328369140625,0.10791015625,0.00390625,0.99755859375,-0.875,1.0625,-1.1875
1.45,-3.0,-28.0,-9.0,-2.0,2.0,-3.0,-4.0,-1.0,-0.0499267578125,0.00079345703125,-0.99737548828125,-0.05352783203125,0.10205078125,0.0087890625,0.99267578125,-1.25,1.4375,-0.6875
1.455,-13.0,-8.0,2.0,2.0,0.0,1.0,0.0,-10.0,-0.0501708984375,0.000244140625,-0.997314453125,-0.05364990234375,0.1044921875,0.01025390625,0.9990234375,-2.0625,0.1875,-0.375
1.46,1.0,-16.0,-1.0,-7.0,-9.0,-9.0,-1.0,9.0,-0.048828125,-0.001708984375,-0.99737548828125,-0.05352783203125,0.09228515625,0.03271484375,0.99072265625,-2.1875,1.5,-1.375
1.465,4.0,12.0,7.0,-4.0,-1.0,1.0,-3.0,-1.0,-0.049072265625,-0.00262451171875,-0.99737548828125,-0.0537109375,0.09814453125,0.0107421875,0.99462890625,-0.625,0.75,-0.8125
1.47,11.0,4.0,5.0,-2.0,-6.0,-1.0,9.0,13.0,-0.04803466796875,-0.0030517578125,-0.99737548828125,-0.05438232421875,0.0966796875,0.00439453125,0.98583984375,0.125,1.5625,-0.25
1.475,9.0,1.0,15.0,1.0,-1.0,2.0,1.0,5.0,-0.0482177734375,-0.00579833984375,-0.997314453125,-0.05511474609375,0.11083984375,0.0,0.9892578125,1.1875,-0.6875,-0.75
1.48,12.0,8.0,-3.0,-3.0,-8.0,-13.0,-3.0,9.0,-0.0487060546875,-0.0086669921875,-0.99725341796875,-0.05548095703125,0.08837890625,0.015625,1.0029296875,5.3125,0.0,0.1875
1.485,6.0,7.0,9.0,0.0,10.0,10.0,14.0,-3.0,-0.04931640625,-0.01446533203125,-0.9970703125,-0.05694580078125,0.10302734375,0.017578125,0.98583984375,3.4375,1.0,-1.375
1.49,20.0,39.0,15.0,1.0,-3.0,-34.0,-13.0,-10.0,-0.04718017578125,-0.01348876953125,-0.9971923828125,-0.05755615234375,0.09765625,-0.00390625,0.97607421875,-4.3125,3.9375,6.5625
1.495,-12.0,-24.0,-20.0,-18.0,-16.0,-88.0,-98.0,-38.0,-0.04010009765625,0.0009765625,-0.997802734375,-0.052978515625,0.078125,-0.0078125,1.01611328125,-7.6875,3.9375,0.9375
1.5,51.0,76.0,48.0,19.0,17.0,-32.0,-93.0,73.0,-0.0382080078125,0.01165771484375,-0.997802734375,-0.05389404296875,0.07958984375,-0.02294921875,0.9912109375,0.8125,-1.125,0.9375
1.505,-12.0,-62.0,-28.0,-6.0,-12.0,-25.0,-26.0,51.0,-0.0380859375,0.013427734375,-0.997802734375,-0.0528564453125,0.0625,-0.04931640625,1.04443359375,2.4375,3.9375,5.75
1.51,-21.0,-27.0,-11.0,-6.0,-30.0,-25.0,-26.0,-19.0,-0.03875732421875,-0.00201416015625,-0.997802734375,-0.05426025390625,0.0517578125,0.04052734375,1.033203125,30.0625,-6.0,-7.125
1.515,1.0,43.0,8.0,11.0,-6.0,-13.0,-22.0,-6.0,-0.048828125,-0.018310546875,-0.99664306640625,-0.0634765625,0.12158203125,0.0546875,0.9951171875,8.8125,-2.75,-4.75
1.52,-6.0,0.0,11.0,4.0,3.0,1.0,5.0,5.0,-0.04815673828125,-0.01678466796875,-0.996826171875,-0.0616455078125,0.09326171875,0.07861328125,0.99072265625,-7.8125,2.75,1.375
1.525,0.0,-10.0,-7.0,-2.0,-8.0,-4.0,-2.0,1.0,-0.047119140625,-0.00567626953125,-0.99700927734375,-0.06146240234375,0.1064453125,0.00439453125,0.9794921875,-3.25,-0.25,0.625
1.53,0.0,28.0,5.0,1.0,-5.0,-8.0,8.0,-4.0,-0.04736328125,0.00115966796875,-0.99713134765625,-0.05999755859375,0.099609375,0.0107421875,0.994140625,-2.125,-0.4375,-1.4375
1.535,10.0,-1.0,-12.0,-3.0,12.0,5.0,5.0,4.0,-0.04888916015625,0.001953125,-0.9970703125,-0.05938720703125,0.095703125,0.00048828125,0.9853515625,1.75,-2.1875,0.0625
1.54,6.0,36.0,6.0,-1.0,6.0,-4.0,0.0,0.0,-0.04998779296875,0.00250244140625,-0.99700927734375,-0.05963134765625,0.11328125,-0.0087890625,0.994140625,-0.5,-0.9375,-0.8125
1.545,-8.0,8.0,-6.0,-5.0,2.0,0.0,-2.0,0.0,-0.05096435546875,0.00341796875,-0.9969482421875,-0.05975341796875,0.11669921875,-0.01220703125,0.9892578125,1.4375,-0.875,2.25
1.55,-1.0,18.0,11.0,0.0,-2.0,-2.0,-3.0,-2.0,-0.05218505859375,0.00390625,-0.99688720703125,-0.0595703125,0.1044921875,0.04052734375,0.99267578125,-3.4375,-0.5,-0.1875
1.555,-6.0,-32.0,-13.0,-2.0,-7.0,-5.0,-3.0,-4.0,-0.0531005859375,0.00421142578125,-0.996826171875,-0.05963134765625,0.107421875,0.00341796875,0.990234375,-0.8125,-0.625,-2.5
1.56,-2.0,0.0,-3.0,-3.0,-5.0,-5.0,-15.0,-17.0,-0.0533447265625,0.0054931640625,-0.99676513671875,-0.0601806640625,0.1142578125,-0.0234375,0.99462890625,-1.4375,0.5625,1.3125
1.565,-1.0,6.0,0.0,-5.0,-1.0,-1.0,1.0,-5.0,-0.05328369140625,0.0054931640625,-0.996826171875,-0.05999755859375,0.1083984375,-0.0048828125,0.99951171875,-1.0,0.9375,0.375
1.57,-4.0,-2.0,-1.0,3.0,2.0,3.0,0.0,0.0,-0.05303955078125,0.00628662109375,-0.99688720703125,-0.05841064453125,0.10888671875,0.01513671875,0.97998046875,-1.5,0.6875,0.875
1.575,3.0,8.0,-2.0,-5.0,-2.0,1.0,-5.0,2.0,-0.0528564453125,0.0062255859375,-0.99688720703125,-0.05853271484375,0.115234375,0.00732421875,1.0,1.5625,0.1875,-0.4375
1.58,-1.0,3.0,-1.0,-8.0,-11.0,-12.0,-16.0,-21.0,-0.05206298828125,0.00518798828125,-0.9969482421875,-0.0582275390625,0.1015625,-0.00146484375,1.005859375,3.4375,1.125,-0.0625
1.585,0.0,-8.0,-9.0,-4.0,2.0,-3.0,-7.0,-10.0,-0.05145263671875,0.00115966796875,-0.9969482421875,-0.0594482421875,0.1162109375,0.0205078125,0.98388671875,0.6875,0.8125,-2.375
1.59,3.0,15.0,-1.0,-3.0,4.0,40.0,36.0,12.0,-0.051025390625,-0.0020751953125,-0.99688720703125,-0.06024169921875,0.12255859375,0.0068359375,0.99169921875,9.375,-0.0625,-1.25
1.595,-24.0,-5.0,0.0,-1.0,-11.0,-26.0,-17.0,-1.0,-0.04901123046875,-0.00555419921875,-0.9969482421875,-0.06109619140625,0.1025390625,0.009765625,1.0029296875,5.3125,2.9375,-1.125
1.6,26.0,22.0,41.0,-3.0,-12.0,12.0,-20.0,61.0,-0.04400634765625,-0.01068115234375,-0.997314453125,-0.057861328125,0.083984375,0.05615234375,0.94140625,-5.1875,6.0625,5.0
1.605,74.0,41.0,64.0,20.0,21.0,44.0,38.0,98.0,-0.0372314453125,0.00274658203125,-0.997802734375,-0.0552978515625,0.06005859375,0.04345703125,1.0,-10.9375,6.0,0.375
1.61,49.0,37.0,-33.0,-2.0,22.0,66.0,51.0,125.0,-0.03509521484375,0.00994873046875,-0.99774169921875,-0.05694580078125,0.10302734375,0.00048828125,0.9892578125,-8.0625,-0.6875,-6.625
1.615,20.0,23.0,-31.0,-6.0,-21.0,13.0,24.0,-34.0,-0.03643798828125,0.00152587890625,-0.99761962890625,-0.0595703125,0.0537109375,0.0185546875,1.02490234375,11.125,-0.5625,-4.375
1.62,-23.0,-87.0,-17.0,-3.0,-4.0,3.0,-9.0,-43.0,-0.0433349609375,-0.01422119140625,-0.99676513671875,-0.06671142578125,0.09716796875,0.0576171875,1.0107421875,14.0625,-8.75,-9.375
1.625,-8.0,-5.0,-3.0,-4.0,-3.0,6.0,0.0,-7.0,-0.0474853515625,-0.01531982421875,-0.99639892578125,-0.0693359375,0.09814453125,0.04736328125,0.9765625,-5.875,0.375,3.625
1.63,-6.0,16.0,6.0,2.0,-3.0,-2.0,-4.0,-3.0,-0.04620361328125,-0.00244140625,-0.996826171875,-0.06561279296875,0.0986328125,0.00732421875,0.98974609375,-6.4375,-0.875,1.4375
1.635,-9.0,-1.0,3.0,0.0,-2.0,-1.0,-1.0,-6.0,-0.04766845703125,0.0040283203125,-0.996826171875,-0.0643310546875,0.09814453125,0.00390625,0.99609375,-4.5,-0.9375,1.75
1.64,-7.0,-5.0,-7.0,0.0,4.0,1.0,4.0,1.0,-0.04937744140625,0.005615234375,-0.99676513671875,-0.06329345703125,0.09375,0.0107421875,0.98828125,-6.0625,-1.375,0.3125
1.645,2.0,24.0,6.0,1.0,0.0,-2.0,2.0,2.0,-0.05169677734375,0.00506591796875,-0.9967041015625,-0.062744140625,0.11669921875,-0.001953125,0.97998046875,-0.4375,-0.75,0.125
1.65,1.0,36.0,26.0,-2.0,-1.0,-2.0,0.0,1.0,-0.0531005859375,0.004150390625,-0.99664306640625,-0.06292724609375,0.11376953125,0.00048828125,0.98681640625,1.5625,-2.0,-1.1875
1.655,-7.0,4.0,6.0,0.0,10.0,7.0,3.0,6.0,-0.05615234375,0.00482177734375,-0.9964599609375,-0.06298828125,0.126953125,-0.01220703125,0.9912109375,-0.875,-2.875,0.125
1.66,-1.0,-22.0,-14.0,-3.0,-5.0,-4.0,0.0,-2.0,-0.05706787109375,0.00604248046875,-0.99639892578125,-0.063232421875,0.12109375,-0.0087890625,1.00146484375,0.0625,-1.625,0.4375
1.665,-1.0,-2.0,-9.0,-2.0,2.0,1.0,-2.0,-2.0,-0.05718994140625,0.00689697265625,-0.996337890625,-0.064208984375,0.1103515625,-0.005859375,0.98095703125,-4.3125,0.75,0.0
1.67,-1.0,20.0,9.0,-1.0,0.0,-3.0,-3.0,-4.0,-0.05767822265625,0.0081787109375,-0.99627685546875,-0.06451416015625,0.1171875,-0.01611328125,1.00244140625,-2.375,-1.5625,-0.1875
1.675,-5.0,4.0,-5.0,-4.0,-1.0,-3.0,-1.0,10.0,-0.05841064453125,0.0089111328125,-0.9962158203125,-0.06451416015625,0.12109375,-0.01318359375,0.9970703125,0.9375,0.8125,0.375
1.68,1.0,39.0,13.0,0.0,-2.0,-2.0,1.0,-2.0,-0.05743408203125,0.00982666015625,-0.9962158203125,-0.06488037109375,0.1181640625,-0.015625,0.9951171875,0.8125,0.9375,0.0
1.685,2.0,15.0,7.0,2.0,-3.0,-1.0,1.0,-1.0,-0.0572509765625,0.00921630859375,-0.99627685546875,-0.064697265625,0.115234375,-0.013671875,0.99658203125,-0.25,1.1875,0.5625
1.69,-3.0,2.0,-1.0,-1.0,-1.0,4.0,-4.0,-3.0,-0.0567626953125,0.009765625,-0.996337890625,-0.06414794921875,0.12158203125,0.0078125,0.98828125,-0.125,0.3125,-0.375
1.695,-13.0,-8.0,-3.0,-1.0,5.0,0.0,-4.0,-11.0,-0.05584716796875,0.01055908203125,-0.99639892578125,-0.06365966796875,0.12890625,-0.037109375,0.98193359375,2.5,0.8125,0.5
1.7,13.0,-4.0,0.0,-1.0,4.0,-3.0,-12.0,4.0,-0.05517578125,0.00634765625,-0.99639892578125,-0.0643310546875,0.109375,-0.00390625,0.994140625,5.3125,1.625,0.0625
1.705,-18.0,-4.0,1.0,-2.0,-3.0,0.0,-3.0,-13.0,-0.05401611328125,0.00445556640625,-0.996337890625,-0.06640625,0.10107421875,-0.037109375,1.00244140625,1.0,2.0,0.6875
1.71,-30.0,-24.0,-9.0,-2.0,4.0,-4.0,-17.0,-21.0,-0.05352783203125,-0.00048828125,-0.99627685546875,-0.0679931640625,0.08251953125,0.02490234375,0.99169921875,0.9375,3.125,0.625
1.715,-8.0,19.0,39.0,7.0,-14.0,3.0,-9.0,-23.0,-0.0543212890625,-0.0023193359375,-0.99609375,-0.06988525390625,0.14013671875,-0.0234375,1.01220703125,4.4375,0.8125,-0.375
1.72,-14.0,-25.0,52.0,19.0,-11.0,4.0,-33.0,-23.0,-0.05255126953125,-0.007568359375,-0.99627685546875,-0.068115234375,0.10888671875,-0.013671875,0.97900390625,-9.0625,4.9375,12.6875
1.725,-20.0,-42.0,-53.0,4.0,24.0,63.0,74.0,28.0,-0.048095703125,0.003662109375,-0.99676513671875,-0.06512451171875,0.08251953125,-0.01904296875,1.00537109375,-7.6875,3.6875,0.1875
1.73,10.0,-9.0,0.0,-5.0,-45.0,-41.0,-1.0,42.0,-0.05010986328125,0.00311279296875,-0.99664306640625,-0.06524658203125,0.080078125,-0.01953125,1.0126953125,1.625,-1.25,3.25
1.735,-19.0,1.0,10.0,-4.0,-36.0,34.0,38.0,-9.0,-0.051025390625,-0.00347900390625,-0.99658203125,-0.065673828125,0.0810546875,0.03271484375,1.0087890625,12.4375,-2.625,-2.0625
1.74,10.0,-21.0,-10.0,-4.0,-21.0,-3.0,-13.0,-9.0,-0.0584716796875,-0.0152587890625,-0.9954833984375,-0.07342529296875,0.126953125,0.06591796875,0.994140625,-0.0625,-0.1875,-2.625
1.745,25.0,73.0,24.0,10.0,-1.0,1.0,-5.0,-2.0,-0.05560302734375,-0.00762939453125,-0.99591064453125,-0.07110595703125,0.12158203125,0.00732421875,0.97705078125,-13.75,3.1875,4.0625
1.75,5.0,35.0,21.0,9.0,8.0,-1.0,0.0,2.0,-0.054443359375,0.0052490234375,-0.99609375,-0.07000732421875,0.1220703125,-0.03076171875,0.99462890625,-3.0625,-0.6875,1.8125
1.755,16.0,21.0,4.0,2.0,-2.0,0.0,2.0,6.0,-0.0556640625,0.0084228515625,-0.99609375,-0.06854248046875,0.11865234375,-0.029296875,0.98681640625,-1.75,-1.625,1.75
1.76,-22.0,-26.0,-7.0,-6.0,-13.0,-3.0,13.0,-5.0,-0.05792236328125,0.00811767578125,-0.99603271484375,-0.0679931640625,0.11181640625,-0.0078125,0.99658203125,-1.8125,-2.4375,0.3125
1.765,2.0,10.0,-33.0,-14.0,-8.0,-7.0,-5.0,-4.0,-0.05975341796875,0.008056640625,-0.99591064453125,-0.067626953125,0.13232421875,-0.02197265625,0.99951171875,0.25,-1.4375,0.4375
1.77,-3.0,-9.0,3.0,-1.0,-2.0,-3.0,-3.0,4.0,-0.060791015625,0.00775146484375,-0.99591064453125,-0.067138671875,0.1279296875,-0.05224609375,0.998046875,4.8125,-2.125,1.6875
1.775,-10.0,-22.0,-4.0,-1.0,-5.0,-2.0,7.0,1.0,-0.06201171875,0.00445556640625,-0.99578857421875,-0.0675048828125,0.12841796875,-0.0029296875,0.9951171875,-1.6875,0.0,-0.0625
1.78,-4.0,-5.0,10.0,-2.0,-11.0,-2.0,-5.0,-10.0,-0.06329345703125,0.00469970703125,-0.9957275390625,-0.0675048828125,0.1435546875,0.001953125,0.994140625,0.9375,-1.375,0.125
1.785,-16.0,5.0,2.0,-3.0,-10.0,-11.0,-8.0,-12.0,-0.063720703125,0.00579833984375,-0.9957275390625,-0.0672607421875,0.12939453125,-0.0263671875,0.99169921875,-2.4375,-0.3125,1.875
1.79,-3.0,3.0,1.0,2.0,8.0,2.0,2.0,-2.0,-0.06414794921875,0.00592041015625,-0.9957275390625,-0.0667724609375,0.1357421875,-0.017578125,0.9873046875,-1.125,-0.125,0.8125
1.795,3.0,-18.0,-21.0,-3.0,-6.0,-3.0,-1.0,1.0,-0.0640869140625,0.00628662109375,-0.99566650390625,-0.0672607421875,0.12939453125,-0.00537109375,0.98974609375,0.0625,0.5625,-1.1875
1.8,-2.0,-12.0,-9.0,0.0,-1.0,-1.0,-5.0,-6.0,-0.06414794921875,0.00689697265625,-0.99566650390625,-0.06707763671875,0.1337890625,-0.00927734375,0.99365234375,-1.375,0.25,-0.3125
1.805,4.0,10.0,-2.0,-6.0,-5.0,-7.0,-7.0,1.0,-0.0640869140625,0.00750732421875,-0.9957275390625,-0.06658935546875,0.1337890625,-0.01513671875,0.986328125,-1.3125,0.3125,1.25
1.81,-5.0,-2.0,-5.0,-4.0,-4.0,1.0,4.0,3.0,-0.0631103515625,0.00848388671875,-0.995849609375,-0.065185546875,0.126953125,0.00341796875,0.9912109375,1.375,1.375,-0.375
1.815,-10.0,-21.0,-9.0,2.0,-3.0,-2.0,-1.0,1.0,-0.06292724609375,0.00732421875,-0.99591064453125,-0.06500244140625,0.14208984375,0.0078125,0.9892578125,7.125,1.9375,-4.25
1.82,13.0,-31.0,-19.0,-4.0,11.0,4.0,-6.0,15.0,-0.06207275390625,0.00384521484375,-0.99591064453125,-0.06646728515625,0.13134765625,0.017578125,0.99951171875,4.8125,1.0625,-4.625
1.825,2.0,-6.0,-19.0,-10.0,-4.0,-3.0,-5.0,-19.0,-0.06085205078125,-0.0010986328125,-0.99591064453125,-0.067626953125,0.12255859375,-0.00146484375,0.98828125,-2.0625,2.375,-0.1875
1.83,-15.0,23.0,1.0,-5.0,-9.0,-19.0,-19.0,-25.0,-0.05859375,-0.00726318359375,-0.9959716796875,-0.067626953125,0.115234375,0.01123046875,0.97021484375,6.1875,4.0625,2.875
1.835,1.0,16.0,-41.0,-14.0,-2.0,-37.0,-21.0,8.0,-0.05230712890625,-0.003173828125,-0.99658203125,-0.064453125,0.10595703125,0.0224609375,0.9892578125,-19.75,8.625,4.375
1.84,87.0,118.0,79.0,31.0,-11.0,9.0,14.0,-82.0,-0.04608154296875,0.0050048828125,-0.99713134765625,-0.0601806640625,0.07958984375,0.00244140625,1.00732421875,8.25,4.9375,2.875
1.845,15.0,-19.0,45.0,19.0,32.0,127.0,127.0,37.0,-0.04351806640625,-0.00433349609375,-0.99725341796875,-0.05999755859375,0.1142578125,0.03564453125,0.9912109375,-2.625,-1.3125,-0.625
1.85,-5.0,30.0,-9.0,7.0,8.0,-29.0,-20.0,-1.0,-0.045654296875,-0.01025390625,-0.9970703125,-0.060546875,0.09423828125,0.11474609375,1.0048828125,-2.625,-2.75,-5.625
1.855,-7.0,-3.0,3.0,0.0,1.0,-3.0,-7.0,-2.0,-0.05218505859375,-0.01727294921875,-0.99639892578125,-0.06500244140625,0.1005859375,0.03173828125,0.95849609375,-0.375,-10.375,-7.3125
1.86,-4.0,3.0,-5.0,-3.0,-9.0,-4.0,-14.0,-4.0,-0.0577392578125,-0.0130615234375,-0.9959716796875,-0.06768798828125,0.11474609375,-0.005859375,0.9736328125,-12.25,-2.125,1.875
1.865,7.0,49.0,11.0,2.0,5.0,-2.0,4.0,3.0,-0.05718994140625,0.001220703125,-0.99615478515625,-0.06683349609375,0.1259765625,-0.05078125,0.984375,-7.25,-0.3125,4.25
1.87,1.0,-8.0,-14.0,-4.0,-5.0,-2.0,9.0,7.0,-0.0572509765625,0.00390625,-0.9962158203125,-0.06573486328125,0.1181640625,-0.00537109375,0.98046875,-7.875,-1.0625,0.625
1.875,-14.0,40.0,11.0,1.0,2.0,-1.0,13.0,7.0,-0.05902099609375,0.00555419921875,-0.99609375,-0.0660400390625,0.11767578125,0.02734375,0.99072265625,-1.3125,-1.5,-0.0625
1.88,-6.0,-1.0,15.0,5.0,-4.0,6.0,1.0,-1.0,-0.0626220703125,0.00482177734375,-0.995849609375,-0.06610107421875,0.1318359375,0.00244140625,0.9765625,-0.9375,-3.0,-1.25
1.885,0.0,-4.0,-9.0,-5.0,-11.0,-6.0,-9.0,0.0,-0.06597900390625,0.006591796875,-0.99554443359375,-0.06707763671875,0.14453125,-0.00390625,0.98681640625,-2.625,-1.4375,1.125
1.89,4.0,35.0,8.0,3.0,-10.0,-8.0,-3.0,0.0,-0.06683349609375,0.00933837890625,-0.99554443359375,-0.06640625,0.13427734375,-0.013671875,0.98828125,-1.3125,-0.9375,1.75
1.895,-2.0,16.0,14.0,-2.0,-4.0,-2.0,0.0,-3.0,-0.0665283203125,0.012451171875,-0.99554443359375,-0.0665283203125,0.138671875,-0.01513671875,0.98193359375,-4.75,-0.0625,0.25
1.9,1.0,8.0,9.0,4.0,1.0,0.0,-1.0,0.0,-0.0667724609375,0.0142822265625,-0.9954833984375,-0.06622314453125,0.14599609375,-0.01513671875,0.99462890625,-4.125,0.0,0.6875
1.905,-2.0,-11.0,-6.0,-3.0,-6.0,-5.0,-1.0,-7.0,-0.06671142578125,0.01568603515625,-0.9954833984375,-0.06597900390625,0.13916015625,-0.03076171875,0.998046875,0.875,0.0,0.3125
1.91,0.0,3.0,12.0,4.0,-1.0,3.0,-1.0,-5.0,-0.06768798828125,0.0130615234375,-0.9954833984375,-0.06597900390625,0.142578125,-0.02001953125,0.99365234375,5.125,0.3125,-0.25
1.915,-1.0,-10.0,4.0,2.0,4.0,6.0,12.0,-1.0,-0.067626953125,0.0103759765625,-0.9954833984375,-0.06610107421875,0.138671875,-0.01416015625,0.98193359375,2.5,0.8125,-0.4375
1.92,4.0,-9.0,-2.0,3.0,-1.0,-2.0,3.0,-7.0,-0.0682373046875,0.00811767578125,-0.99566650390625,-0.063232421875,0.1416015625,-0.009765625,0.99169921875,4.9375,-1.3125,3.5625
1.925,0.0,3.0,-4.0,3.0,1.0,-1.0,0.0,-16.0,-0.06927490234375,0.0047607421875,-0.99578857421875,-0.06048583984375,0.13720703125,0.00732421875,0.984375,3.5625,0.9375,2.6875
1.93,1.0,37.0,10.0,11.0,19.0,6.0,-3.0,-2.0,-0.0703125,0.0018310546875,-0.9957275390625,-0.06005859375,0.14794921875,0.005859375,0.97998046875,9.3125,-0.25,-0.1875
1.935,3.0,29.0,-1.0,1.0,11.0,9.0,6.0,11.0,-0.069091796875,-0.00634765625,-0.9957275390625,-0.06121826171875,0.14794921875,0.00830078125,0.984375,3.5,1.25,-0.375
1.94,7.0,-37.0,-4.0,1.0,-3.0,-3.0,16.0,-1.0,-0.067626953125,-0.01373291015625,-0.9957275390625,-0.06146240234375,0.1416015625,0.00732421875,1.00048828125,1.1875,3.8125,0.5
1.945,29.0,15.0,-2.0,7.0,-17.0,-47.0,27.0,62.0,-0.0611572265625,-0.02044677734375,-0.9962158203125,-0.05902099609375,0.13232421875,0.1103515625,0.98583984375,-9.6875,11.5625,4.375
1.95,18.0,17.0,51.0,30.0,4.0,77.0,84.0,6.0,-0.052978515625,-0.01751708984375,-0.9969482421875,-0.0548095703125,0.09033203125,0.0869140625,1.01123046875,-0.375,6.4375,1.0625
1.955,34.0,-17.0,3.0,-5.0,-25.0,20.0,58.0,64.0,-0.05194091796875,-0.01361083984375,-0.9970703125,-0.054931640625,0.10791015625,0.03857421875,0.98828125,-3.75,-3.0,-2.25
1.96,-16.0,-110.0,-31.0,-7.0,25.0,14.0,-3.0,19.0,-0.0556640625,-0.01458740234375,-0.99676513671875,-0.05670166015625,0.1171875,0.05029296875,1.0029296875,0.375,-2.9375,0.875
1.965,-11.0,-18.0,9.0,3.0,-18.0,-6.0,17.0,28.0,-0.05950927734375,-0.01739501953125,-0.996337890625,-0.0592041015625,0.119140625,0.02294921875,1.02197265625,4.9375,-4.0625,-4.5625
1.97,-2.0,15.0,7.0,3.0,2.0,1.0,0.0,5.0,-0.0653076171875,-0.02142333984375,-0.99560546875,-0.06439208984375,0.1298828125,0.02490234375,0.97802734375,-4.4375,-1.9375,-2.6875
1.975,12.0,-1.0,9.0,5.0,-6.0,-2.0,-2.0,2.0,-0.06475830078125,-0.017578125,-0.99578857421875,-0.0631103515625,0.1279296875,0.048828125,0.99658203125,-10.8125,0.75,0.875
1.98,6.0,19.0,9.0,6.0,7.0,5.0,0.0,5.0,-0.06402587890625,-0.00579833984375,-0.99615478515625,-0.06011962890625,0.15283203125,-0.0166015625,0.9970703125,-1.125,0.4375,3.3125
1.985,4.0,17.0,14.0,4.0,-2.0,-4.0,-2.0,1.0,-0.0635986328125,-0.0023193359375,-0.99627685546875,-0.05828857421875,0.1396484375,-0.01171875,0.99951171875,-4.375,-0.6875,1.4375
1.99,18.0,81.0,20.0,5.0,-2.0,1.0,-2.0,-4.0,-0.06402587890625,-0.0010986328125,-0.99639892578125,-0.056640625,0.130859375,0.0029296875,0.99560546875,-4.4375,0.4375,1.75
1.995,13.0,62.0,-2.0,-1.0,5.0,2.0,1.0,2.0,-0.06390380859375,-0.00128173828125,-0.99639892578125,-0.0565185546875,0.130859375,0.00830078125,0.99658203125,-0.125,-0.5625,0.5
2.0,2.0,-26.0,0.0,0.0,8.0,-2.0,-1.0,-1.0,-0.06512451171875,-0.00384521484375,-0.99639892578125,-0.05517578125,0.13427734375,0.025390625,0.99560546875,2.875,-0.5,-1.0
2.005,8.0,35.0,16.0,5.0,4.0,0.0,1.0,2.0,-0.0660400390625,-0.00408935546875,-0.9962158203125,-0.056640625,0.13671875,0.01123046875,1.00146484375,5.8125,-1.875,-0.75
2.01,-11.0,7.0,-8.0,0.0,-10.0,-6.0,-3.0,-4.0,-0.0701904296875,-0.008544921875,-0.995849609375,-0.0577392578125,0.14990234375,-0.00146484375,0.98291015625,2.0,-2.6875,-1.5
2.015,-5.0,15.0,5.0,1.0,1.0,4.0,-2.0,-4.0,-0.0709228515625,-0.01214599609375,-0.99560546875,-0.0604248046875,0.13623046875,0.021484375,0.98583984375,2.6875,-1.4375,-3.0625
2.02,-12.0,-6.0,-10.0,-7.0,-2.0,-1.0,-6.0,-5.0,-0.070068359375,-0.01287841796875,-0.9954833984375,-0.063232421875,0.138671875,0.02978515625,0.98388671875,-2.0,0.4375,-3.125
2.025,-11.0,-33.0,-11.0,-2.0,4.0,1.0,-2.0,-1.0,-0.0704345703125,-0.01092529296875,-0.99554443359375,-0.0625,0.13720703125,0.04638671875,0.9951171875,-1.8125,-0.3125,2.3125
2.03,2.0,-8.0,3.0,1.0,0.0,0.0,5.0,17.0,-0.069580078125,-0.0093994140625,-0.9957275390625,-0.06072998046875,0.138671875,0.02587890625,0.99072265625,-2.375,1.0625,2.0
2.035,2.0,-3.0,1.0,6.0,-1.0,0.0,5.0,1.0,-0.06671142578125,-0.00762939453125,-0.99603271484375,-0.0592041015625,0.138671875,0.03515625,0.9833984375,-5.375,4.6875,0.9375
2.04,-13.0,22.0,-6.0,3.0,0.0,1.0,-8.0,-13.0,-0.0635986328125,-0.00677490234375,-0.996337890625,-0.0576171875,0.125,0.03857421875,0.97900390625,10.6875,4.0,0.6875
2.045,-6.0,13.0,4.0,-1.0,2.0,1.0,2.0,8.0,-0.0625,-0.00958251953125,-0.99639892578125,-0.05718994140625,0.13525390625,0.056640625,0.99658203125,4.5625,1.4375,-3.25
2.05,7.0,1.0,9.0,4.0,9.0,-3.0,-11.0,26.0,-0.0623779296875,-0.0128173828125,-0.99627685546875,-0.0582275390625,0.1318359375,0.04248046875,0.98974609375,6.5625,0.75,-2.8125
2.055,-11.0,-38.0,15.0,10.0,15.0,0.0,5.0,-7.0,-0.05999755859375,-0.01788330078125,-0.9962158203125,-0.06072998046875,0.10302734375,0.02978515625,0.98388671875,5.4375,3.25,0.6875
2.06,-9.0,-10.0,10.0,2.0,4.0,2.0,-6.0,9.0,-0.0548095703125,-0.02362060546875,-0.99652099609375,-0.0584716796875,0.1083984375,0.11279296875,0.97314453125,-7.875,12.0,4.75
2.065,-12.0,-50.0,-11.0,11.0,17.0,28.0,16.0,-13.0,-0.0478515625,-0.0155029296875,-0.9971923828125,-0.05560302734375,0.0908203125,0.0498046875,0.97314453125,-3.625,5.0625,0.75
2.07,-1.0,-38.0,97.0,54.0,-4.0,-60.0,-58.0,1.0,-0.047607421875,-0.00946044921875,-0.99725341796875,-0.05706787109375,0.1142578125,0.01904296875,1.00146484375,-7.6875,-3.3125,-2.375
2.075,-23.0,-25.0,-32.0,1.0,-5.0,21.0,-37.0,-38.0,-0.0526123046875,-0.0079345703125,-0.9969482421875,-0.05816650390625,0.09423828125,0.033203125,1.04296875,7.3125,-6.8125,-6.0
2.08,3.0,-21.0,-5.0,-3.0,-1.0,16.0,22.0,-1.0,-0.0595703125,-0.01300048828125,-0.99609375,-0.06475830078125,0.12255859375,0.01171875,1.00927734375,10.8125,-6.75,-9.1875
2.085,6.0,-22.0,0.0,3.0,-1.0,1.0,-2.0,5.0,-0.06121826171875,-0.015869140625,-0.99591064453125,-0.0655517578125,0.14990234375,0.03857421875,0.994140625,-1.6875,4.0625,1.4375
2.09,8.0,23.0,2.0,-2.0,12.0,6.0,0.0,-3.0,-0.0567626953125,-0.00811767578125,-0.9962158203125,-0.06549072265625,0.123046875,0.0263671875,0.970703125,-8.9375,1.875,-1.25
2.095,-4.0,16.0,0.0,0.0,2.0,-1.0,-4.0,0.0,-0.056396484375,0.00091552734375,-0.99639892578125,-0.06414794921875,0.12255859375,-0.033203125,0.99853515625,-6.375,0.1875,3.5625
2.1,-3.0,-26.0,-14.0,2.0,23.0,10.0,1.0,11.0,-0.05572509765625,0.00347900390625,-0.9964599609375,-0.06378173828125,0.1103515625,0.00927734375,0.99072265625,-4.875,0.6875,0.625
2.105,-5.0,27.0,27.0,0.0,2.0,-5.0,3.0,1.0,-0.05682373046875,0.00335693359375,-0.996337890625,-0.064453125,0.11669921875,0.0068359375,0.994140625,1.625,-1.375,-1.3125
2.11,-38.0,-18.0,-28.0,-10.0,-3.0,-2.0,-7.0,-6.0,-0.05865478515625,0.0020751953125,-0.99615478515625,-0.065185546875,0.11669921875,0.00927734375,0.99560546875,-2.6875,-0.5625,-1.6875
2.115,-15.0,-40.0,-11.0,-3.0,-3.0,-2.0,-4.0,-7.0,-0.06005859375,0.00244140625,-0.99609375,-0.06549072265625,0.13330078125,-0.0205078125,0.9970703125,-2.6875,-1.1875,0.75
2.12,1.0,8.0,10.0,3.0,6.0,5.0,2.0,-4.0,-0.060302734375,0.0032958984375,-0.99609375,-0.06524658203125,0.125,-0.0087890625,0.99169921875,-1.0,-0.1875,2.25
2.125,2.0,-6.0,-7.0,-4.0,-6.0,-3.0,-10.0,-8.0,-0.06005859375,0.00372314453125,-0.99615478515625,-0.06451416015625,0.12255859375,0.0009765625,0.998046875,2.625,0.6875,-0.3125
2.13,5.0,-2.0,10.0,1.0,7.0,7.0,6.0,11.0,-0.059814453125,0.00421142578125,-0.99615478515625,-0.064697265625,0.119140625,0.00048828125,0.9951171875,0.4375,1.0,-0.0625
2.135,-7.0,-11.0,-2.0,-1.0,-4.0,-3.0,-2.0,2.0,-0.05950927734375,0.00543212890625,-0.99615478515625,-0.064453125,0.12646484375,-0.0166015625,0.99755859375,-2.125,0.125,0.875
2.14,2.0,-33.0,9.0,11.0,-3.0,-4.0,-1.0,-5.0,-0.05877685546875,0.0050048828125,-0.99627685546875,-0.06317138671875,0.11181640625,-0.01318359375,0.99169921875,2.5625,-0.125,-1.0
2.145,-12.0,-6.0,-5.0,-8.0,9.0,3.0,-2.0,-3.0,-0.05828857421875,0.004150390625,-0.99627685546875,-0.06414794921875,0.11474609375,-0.005859375,0.9892578125,2.0,0.75,-0.6875
2.15,12.0,1.0,-1.0,0.0,1.0,-5.0,0.0,24.0,-0.0570068359375,0.00341796875,-0.99639892578125,-0.06365966796875,0.11328125,-0.04345703125,0.99267578125,-3.5625,0.8125,2.125
2.155,-8.0,-15.0,-29.0,-12.0,-11.0,-4.0,4.0,-9.0,-0.05633544921875,-0.00091552734375,-0.996337890625,-0.06488037109375,0.107421875,0.00634765625,0.99755859375,2.4375,0.4375,0.0
2.16,-19.0,-20.0,5.0,5.0,1.0,-1.0,2.0,-25.0,-0.05657958984375,-0.0040283203125,-0.996337890625,-0.064697265625,0.1220703125,0.013671875,0.9853515625,4.75,1.375,0.6875
2.165,7.0,13.0,22.0,3.0,-7.0,59.0,92.0,4.0,-0.056396484375,-0.01507568359375,-0.9962158203125,-0.06494140625,0.11767578125,0.0419921875,0.99462890625,5.5,1.9375,-0.5
2.17,2.0,44.0,-15.0,-11.0,-13.0,-38.0,-2.0,43.0,-0.048828125,-0.01165771484375,-0.99688720703125,-0.06134033203125,0.07568359375,0.02734375,0.98291015625,-5.5,6.375,1.4375
2.175,42.0,-6.0,-10.0,-7.0,-36.0,-58.0,-15.0,-65.0,-0.046630859375,-0.010009765625,-0.9969482421875,-0.06268310546875,0.08203125,0.005859375,1.0126953125,3.4375,0.125,-1.375
2.18,48.0,56.0,20.0,16.0,91.0,111.0,46.0,46.0,-0.0489501953125,-0.00640869140625,-0.99664306640625,-0.06610107421875,0.0986328125,0.01171875,1.0205078125,3.0,-1.625,-1.625
2.185,30.0,11.0,-7.0,1.0,-19.0,-30.0,-20.0,43.0,-0.05340576171875,-0.014892578125,-0.99609375,-0.069580078125,0.0751953125,0.04736328125,0.94921875,7.25,-6.8125,-9.4375
2.19,20.0,38.0,18.0,8.0,31.0,17.0,10.0,7.0,-0.058349609375,-0.022216796875,-0.99530029296875,-0.07464599609375,0.1220703125,0.10546875,0.96923828125,-4.0625,-3.0625,-6.3125
2.195,-2.0,-26.0,-10.0,-3.0,-2.0,-8.0,1.0,1.0,-0.05731201171875,-0.0107421875,-0.99542236328125,-0.0758056640625,0.12255859375,0.03564453125,0.966796875,-12.875,2.1875,0.5
2.2,-4.0,-14.0,-29.0,-7.0,-11.0,-8.0,-3.0,-4.0,-0.05535888671875,0.00189208984375,-0.9957275390625,-0.07421875,0.125,0.00537109375,0.98974609375,-4.875,-0.875,-0.5625
2.205,2.0,-13.0,11.0,2.0,-6.0,-3.0,-15.0,-4.0,-0.056396484375,0.00592041015625,-0.99560546875,-0.074951171875,0.11669921875,-0.02294921875,0.99951171875,-2.4375,-0.9375,0.0
2.21,-2.0,53.0,17.0,1.0,0.0,2.0,4.0,4.0,-0.0582275390625,0.007568359375,-0.99554443359375,-0.07403564453125,0.1259765625,-0.03125,0.9970703125,1.75,-1.5,1.75
2.215,-4.0,1.0,4.0,-4.0,-6.0,-6.0,-4.0,-11.0,-0.059814453125,0.00701904296875,-0.99542236328125,-0.0743408203125,0.11572265625,-0.0224609375,0.98681640625,3.4375,-2.8125,0.25
2.22,-12.0,-2.0,-1.0,-4.0,-2.0,-1.0,-1.0,-2.0,-0.06317138671875,0.00640869140625,-0.9952392578125,-0.07464599609375,0.14013671875,-0.02197265625,0.9990234375,-0.6875,-3.5,1.4375
2.225,-3.0,-12.0,-18.0,-10.0,-9.0,-4.0,-2.0,-2.0,-0.066162109375,0.00640869140625,-0.9951171875,-0.073486328125,0.138671875,0.0029296875,0.99072265625,0.1875,-1.4375,1.0
2.23,-2.0,-16.0,3.0,-1.0,-14.0,-8.0,-2.0,0.0,-0.06707763671875,0.00732421875,-0.99505615234375,-0.073486328125,0.1357421875,-0.00390625,0.99560546875,1.1875,-1.5,-0.4375
2.235,-4.0,-13.0,1.0,-1.0,-5.0,-1.0,2.0,0.0,-0.06732177734375,0.00787353515625,-0.99505615234375,-0.0728759765625,0.138671875,-0.01318359375,0.9931640625,-1.75,-0.3125,0.6875
2.24,-8.0,-31.0,-22.0,-7.0,-5.0,-5.0,-1.0,-7.0,-0.06695556640625,0.00811767578125,-0.9951171875,-0.0726318359375,0.142578125,-0.0234375,0.9873046875,0.125,-0.125,0.875
2.245,-9.0,-16.0,3.0,2.0,-1.0,0.0,2.0,-4.0,-0.06689453125,0.0074462890625,-0.9951171875,-0.07257080078125,0.13818359375,0.00244140625,0.98974609375,-1.625,0.9375,-0.125
2.25,4.0,-4.0,-4.0,-3.0,9.0,2.0,-2.0,0.0,-0.0670166015625,0.00921630859375,-0.99517822265625,-0.0712890625,0.1318359375,-0.00341796875,1.005859375,-6.6875,-2.4375,2.875
2.255,7.0,14.0,-2.0,0.0,-1.0,-3.0,0.0,23.0,-0.06817626953125,0.006103515625,-0.99517822265625,-0.07086181640625,0.1435546875,-0.01708984375,0.9853515625,1.25,0.6875,2.9375
2.26,7.0,-19.0,-10.0,-8.0,-4.0,-6.0,-7.0,28.0,-0.0677490234375,0.00335693359375,-0.99530029296875,-0.06982421875,0.14404296875,-0.01513671875,0.98388671875,1.375,-0.1875,4.125
2.265,-3.0,-66.0,-20.0,-5.0,-2.0,7.0,24.0,15.0,-0.06744384765625,-0.00164794921875,-0.99517822265625,-0.07171630859375,0.142578125,0.01513671875,0.98583984375,4.4375,0.375,-4.1875
2.27,-5.0,22.0,1.0,-7.0,-7.0,-14.0,-16.0,15.0,-0.06756591796875,-0.0093994140625,-0.99505615234375,-0.07293701171875,0.12841796875,0.04931640625,0.9814453125,5.625,2.1875,-1.375
2.275,10.0,34.0,6.0,2.0,-8.0,-4.0,-49.0,34.0,-0.062255859375,-0.0118408203125,-0.99554443359375,-0.07012939453125,0.14013671875,0.02197265625,1.00439453125,-15.625,7.0,4.5625
2.28,-21.0,-23.0,26.0,1.0,-10.0,-79.0,-63.0,69.0,-0.05877685546875,-0.0045166015625,-0.9959716796875,-0.0677490234375,0.1162109375,0.029296875,0.99072265625,-3.6875,0.0625,-0.4375
2.285,31.0,21.0,-55.0,-30.0,14.0,-18.0,-12.0,-37.0,-0.06201171875,-0.004638671875,-0.9957275390625,-0.06866455078125,0.10302734375,0.02734375,1.001953125,1.625,-3.3125,0.1875
2.29,0.0,-19.0,7.0,2.0,6.0,8.0,25.0,-10.0,-0.06512451171875,-0.0087890625,-0.995361328125,-0.071044921875,0.1259765625,0.05810546875,1.0341796875,-0.25,-3.75,-5.0
2.295,15.0,44.0,11.0,4.0,2.0,-10.0,-7.0,-13.0,-0.071044921875,-0.00860595703125,-0.99462890625,-0.0751953125,0.15576171875,0.0009765625,1.009765625,-16.625,4.0,0.625
2.3,2.0,-5.0,-1.0,0.0,-20.0,-13.0,-5.0,1.0,-0.06854248046875,-0.0062255859375,-0.99493408203125,-0.07379150390625,0.15234375,0.04248046875,0.97412109375,-9.3125,3.25,4.8125
2.305,-2.0,-36.0,-18.0,-11.0,8.0,-3.0,-3.0,-5.0,-0.0635986328125,0.00048828125,-0.995361328125,-0.07244873046875,0.1240234375,0.02978515625,1.00927734375,-9.5625,7.0,1.625
2.31,1.0,-17.0,2.0,2.0,-1.0,-2.0,-2.0,3.0,-0.06085205078125,0.00555419921875,-0.99566650390625,-0.0701904296875,0.1201171875,-0.02001953125,0.98681640625,0.0625,-0.9375,2.125
2.315,-8.0,-10.0,-1.0,-3.0,0.0,8.0,-6.0,8.0,-0.06353759765625,0.00396728515625,-0.99566650390625,-0.06866455078125,0.1396484375,0.00732421875,0.9931640625,0.4375,-2.0,-0.5625
2.32,3.0,1.0,-8.0,0.0,-3.0,0.0,0.0,0.0,-0.0673828125,-0.001220703125,-0.99554443359375,-0.06683349609375,0.14013671875,0.02001953125,0.99560546875,3.6875,-2.8125,2.0
2.325,1.0,5.0,7.0,3.0,4.0,1.0,1.0,1.0,-0.0712890625,-0.00347900390625,-0.99530029296875,-0.06591796875,0.158203125,0.0244140625,0.9814453125,3.4375,-4.3125,1.0625
2.33,-5.0,6.0,14.0,3.0,-2.0,-5.0,0.0,-2.0,-0.07470703125,-0.00616455078125,-0.99505615234375,-0.065673828125,0.14404296875,0.0224609375,0.99755859375,1.8125,-3.0,-1.9375
2.335,-1.0,-22.0,-14.0,-1.0,1.0,1.0,4.0,0.0,-0.072998046875,-0.00396728515625,-0.9951171875,-0.0670166015625,0.1357421875,0.013671875,0.98779296875,2.5,1.25,-1.3125
2.34,-8.0,-36.0,-21.0,-5.0,11.0,8.0,-1.0,-5.0,-0.07049560546875,-0.00372314453125,-0.9952392578125,-0.0677490234375,0.14501953125,0.00830078125,0.97314453125,-0.6875,2.1875,-1.0625
2.345,-6.0,-12.0,-11.0,-4.0,2.0,4.0,-2.0,-7.0,-0.0701904296875,-0.00201416015625,-0.9952392578125,-0.06829833984375,0.14404296875,-0.00537109375,0.97119140625,0.125,-0.875,-0.0625
2.35,-5.0,-11.0,0.0,-1.0,1.0,-1.0,11.0,-2.0,-0.0704345703125,-0.00164794921875,-0.9952392578125,-0.0677490234375,0.1435546875,0.00390625,1.0,0.5625,0.1875,1.0
2.355,-12.0,-35.0,-6.0,-3.0,1.0,-2.0,16.0,11.0,-0.069580078125,-0.0040283203125,-0.995361328125,-0.0667724609375,0.140625,0.021484375,0.9873046875,3.75,2.875,0.875
2.36,-9.0,-24.0,-6.0,-2.0,-2.0,-2.0,-4.0,-8.0,-0.06805419921875,-0.00616455078125,-0.9954833984375,-0.06646728515625,0.14453125,0.015625,0.978515625,6.8125,1.5,0.25
2.365,-3.0,-8.0,-4.0,0.0,-3.0,-2.0,3.0,3.0,-0.06781005859375,-0.00872802734375,-0.9954833984375,-0.06658935546875,0.1376953125,0.03369140625,0.97509765625,1.1875,0.6875,-0.5625
2.37,1.0,2.0,-27.0,-5.0,4.0,-5.0,-9.0,8.0,-0.0684814453125,-0.01092529296875,-0.995361328125,-0.06695556640625,0.13525390625,0.0244140625,0.98486328125,5.3125,-0.625,-0.4375
2.375,5.0,2.0,-6.0,-4.0,-9.0,-2.0,4.0,29.0,-0.06915283203125,-0.0157470703125,-0.9952392578125,-0.067626953125,0.1416015625,0.04443359375,0.9755859375,3.25,0.5625,-0.9375
2.38,3.0,-18.0,-12.0,-2.0,-1.0,-16.0,-32.0,5.0,-0.0684814453125,-0.02020263671875,-0.9951171875,-0.06903076171875,0.13623046875,0.0556640625,0.98046875,3.0,0.625,-2.0
2.385,3.0,19.0,12.0,3.0,-8.0,0.0,15.0,-18.0,-0.06768798828125,-0.0250244140625,-0.99493408203125,-0.0701904296875,0.1357421875,0.083984375,0.98828125,10.4375,2.1875,-4.625
2.39,33.0,81.0,32.0,0.0,3.0,-17.0,7.0,54.0,-0.06298828125,-0.02227783203125,-0.9957275390625,-0.0640869140625,0.1474609375,0.00927734375,0.99755859375,-8.375,4.625,6.6875
2.395,21.0,61.0,-58.0,-35.0,9.0,9.0,-45.0,-104.0,-0.0596923828125,-0.01763916015625,-0.99609375,-0.0633544921875,0.1171875,0.015625,1.02978515625,-1.75,0.9375,-1.0625
2.4,46.0,24.0,18.0,16.0,48.0,57.0,39.0,66.0,-0.06195068359375,-0.02227783203125,-0.99578857421875,-0.0640869140625,0.10302734375,0.0390625,1.00390625,2.125,-3.6875,-3.1875
2.405,12.0,8.0,1.0,2.0,9.0,10.0,25.0,-9.0,-0.06695556640625,-0.02606201171875,-0.99505615234375,-0.0693359375,0.11669921875,0.0458984375,0.97705078125,9.0,-7.9375,-5.375
2.41,9.0,3.0,-4.0,1.0,-20.0,-5.0,-4.0,1.0,-0.06634521484375,-0.02484130859375,-0.99493408203125,-0.072021484375,0.123046875,0.052734375,1.00146484375,-2.75,2.875,2.75
2.415,-39.0,-78.0,-15.0,-6.0,10.0,1.0,-4.0,-22.0,-0.06317138671875,-0.021484375,-0.99517822265625,-0.072021484375,0.11767578125,0.08447265625,0.97607421875,-10.375,3.8125,0.625
2.42,-7.0,5.0,-8.0,-7.0,0.0,-3.0,1.0,-2.0,-0.0611572265625,-0.00946044921875,-0.9957275390625,-0.06927490234375,0.130859375,0.0087890625,0.9951171875,-8.5625,1.1875,2.1875
2.425,-5.0,2.0,-13.0,-4.0,9.0,-1.0,-1.0,-3.0,-0.06195068359375,-0.004150390625,-0.99578857421875,-0.067626953125,0.13037109375,0.005859375,1.00244140625,-8.0,-1.375,2.25
2.43,12.0,1.0,3.0,3.0,-9.0,1.0,15.0,5.0,-0.06463623046875,-0.003173828125,-0.9957275390625,-0.0667724609375,0.12451171875,0.00732421875,0.9814453125,-0.3125,-2.25,2.375
2.435,-2.0,31.0,5.0,1.0,2.0,-3.0,-2.0,-4.0,-0.06671142578125,-0.00421142578125,-0.9954833984375,-0.067626953125,0.12646484375,0.0322265625,0.9794921875,-1.0,-0.5625,-0.375
2.44,-9.0,31.0,19.0,6.0,4.0,-4.0,-4.0,0.0,-0.06866455078125,-0.00311279296875,-0.99530029296875,-0.06915283203125,0.13623046875,0.04248046875,0.9970703125,-4.125,-2.0625,-1.0625
2.445,4.0,-17.0,-12.0,-5.0,-4.0,-4.0,-9.0,-4.0,-0.0701904296875,-0.00189208984375,-0.99517822265625,-0.06915283203125,0.14013671875,0.03662109375,0.998046875,-0.5625,0.1875,-1.25
2.45,-25.0,-40.0,-1.0,-1.0,-2.0,-3.0,3.0,-3.0,-0.06878662109375,0.000244140625,-0.99530029296875,-0.0689697265625,0.14208984375,-0.0009765625,0.98681640625,-1.875,0.6875,0.0625
2.455,-5.0,-12.0,0.0,-2.0,-2.0,-2.0,-3.0,-3.0,-0.06854248046875,0.00079345703125,-0.99530029296875,-0.06866455078125,0.13818359375,0.00048828125,0.98779296875,-2.375,-0.3125,0.5625
2.46,-6.0,9.0,3.0,-5.0,-3.0,0.0,1.0,-3.0,-0.06793212890625,0.001220703125,-0.99542236328125,-0.06805419921875,0.142578125,-0.00634765625,0.9892578125,-1.1875,-0.375,1.0
2.465,0.0,-6.0,-11.0,-1.0,-1.0,-1.0,-1.0,-5.0,-0.06787109375,0.00054931640625,-0.99542236328125,-0.06787109375,0.13623046875,0.0087890625,0.99853515625,0.25,0.75,-0.625
2.47,4.0,16.0,4.0,0.0,-6.0,-4.0,0.0,1.0,-0.06768798828125,0.00048828125,-0.99542236328125,-0.06781005859375,0.13818359375,0.00537109375,0.9873046875,0.1875,1.1875,0.5625
2.475,-8.0,-7.0,2.0,1.0,-5.0,1.0,-2.0,-11.0,-0.066650390625,-0.00067138671875,-0.99560546875,-0.06640625,0.14111328125,-0.00244140625,0.99169921875,3.5625,1.1875,1.3125
2.48,8.0,3.0,-13.0,-3.0,-3.0,-2.0,-5.0,-13.0,-0.0654296875,-0.00250244140625,-0.9957275390625,-0.06585693359375,0.1279296875,0.04150390625,0.9833984375,2.0625,-0.125,0.3125
2.485,-12.0,-7.0,10.0,5.0,3.0,0.0,-8.0,-29.0,-0.06475830078125,-0.00506591796875,-0.9957275390625,-0.06634521484375,0.12890625,0.0283203125,0.98876953125,5.0,1.0,-1.0625
2.49,-8.0,-12.0,-6.0,-2.0,7.0,-1.0,-5.0,-10.0,-0.06451416015625,-0.009521484375,-0.99554443359375,-0.06842041015625,0.1318359375,0.03662109375,0.98828125,1.375,1.8125,-1.8125
2.495,-2.0,13.0,0.0,-1.0,-12.0,0.0,0.0,-21.0,-0.064697265625,-0.01214599609375,-0.99542236328125,-0.07012939453125,0.1376953125,0.04345703125,0.97607421875,5.0625,0.5625,-3.3125
2.5,-4.0,10.0,-3.0,-2.0,-8.0,-11.0,3.0,-34.0,-0.06512451171875,-0.0162353515625,-0.9952392578125,-0.071533203125,0.1318359375,0.04638671875,0.98291015625,4.1875,0.4375,-1.0
2.505,-6.0,10.0,24.0,2.0,-6.0,-36.0,-59.0,-24.0,-0.0625,-0.01446533203125,-0.99554443359375,-0.0699462890625,0.13525390625,0.0419921875,0.98828125,-7.625,5.8125,5.8125
2.51,9.0,1.0,58.0,35.0,19.0,17.0,-70.0,-10.0,-0.057861328125,-0.00531005859375,-0.99609375,-0.06658935546875,0.10693359375,0.0341796875,1.00927734375,-9.5625,5.4375,1.8125
2.515,80.0,-36.0,-2.0,-9.0,-9.0,70.0,91.0,79.0,-0.0543212890625,-0.00555419921875,-0.996337890625,-0.0667724609375,0.09326171875,0.00830078125,1.00390625,4.8125,1.8125,0.5625
2.52,-11.0,-11.0,-11.0,-7.0,-26.0,-13.0,-11.0,-2.0,-0.058349609375,-0.01214599609375,-0.995849609375,-0.06915283203125,0.1298828125,0.02783203125,1.02587890625,10.625,-6.625,-6.5
2.525,-11.0,27.0,13.0,2.0,14.0,5.0,5.0,-7.0,-0.06695556640625,-0.022216796875,-0.99468994140625,-0.07537841796875,0.14306640625,0.07421875,0.986328125,1.6875,-2.4375,-1.5
2.53,16.0,8.0,2.0,-5.0,-8.0,-7.0,1.0,0.0,-0.0665283203125,-0.017822265625,-0.99481201171875,-0.0750732421875,0.130859375,0.064453125,0.990234375,-3.875,1.3125,-0.25
2.535,11.0,9.0,7.0,7.0,1.0,2.0,3.0,5.0,-0.06573486328125,-0.01007080078125,-0.9949951171875,-0.07537841796875,0.13427734375,0.0546875,0.96875,-6.8125,3.25,2.0
2.54,19.0,63.0,12.0,-1.0,1.0,-3.0,0.0,4.0,-0.0645751953125,-0.00244140625,-0.99517822265625,-0.07391357421875,0.1337890625,0.0205078125,0.984375,-2.375,0.5,-1.5625
2.545,-3.0,-8.0,-1.0,-2.0,3.0,0.0,-2.0,2.0,-0.06500244140625,-0.00128173828125,-0.99517822265625,-0.07415771484375,0.1259765625,0.00732421875,0.98583984375,0.5,-2.4375,-0.75
2.55,5.0,26.0,9.0,3.0,7.0,6.0,4.0,8.0,-0.06622314453125,0.00030517578125,-0.9951171875,-0.073974609375,0.1357421875,0.01416015625,1.00146484375,0.375,-1.375,0.875
2.555,-5.0,16.0,15.0,2.0,-2.0,0.0,-2.0,-2.0,-0.0670166015625,0.00213623046875,-0.9949951171875,-0.07421875,0.140625,-0.001953125,0.99169921875,-1.25,-0.125,0.0
2.56,1.0,-1.0,-2.0,-2.0,-3.0,-1.0,-1.0,2.0,-0.0665283203125,0.00238037109375,-0.9949951171875,-0.0745849609375,0.12939453125,0.00390625,0.99560546875,-1.125,1.3125,1.125
2.565,4.0,40.0,16.0,3.0,-2.0,-2.0,0.0,2.0,-0.0655517578125,0.00372314453125,-0.9951171875,-0.07421875,0.13134765625,0.0068359375,0.99072265625,2.0625,1.4375,0.0
2.57,-2.0,-19.0,-3.0,-2.0,-1.0,-3.0,0.0,-1.0,-0.06524658203125,0.00518798828125,-0.9951171875,-0.073974609375,0.1328125,-0.013671875,0.9931640625,-2.875,0.5,0.75
2.575,1.0,-6.0,-8.0,1.0,-1.0,-1.0,0.0,2.0,-0.064453125,0.0054931640625,-0.9952392578125,-0.07373046875,0.12548828125,0.00390625,0.99169921875,-1.5,1.125,0.4375
2.58,-1.0,27.0,10.0,2.0,-3.0,-1.0,1.0,-10.0,-0.06329345703125,0.00445556640625,-0.995361328125,-0.0723876953125,0.125,0.0107421875,0.99365234375,-1.9375,1.75,-0.3125
2.585,5.0,12.0,7.0,1.0,-1.0,-4.0,0.0,0.0,-0.06201171875,0.00396728515625,-0.9954833984375,-0.072509765625,0.1201171875,0.01953125,0.9921875,-0.625,1.875,-0.5
2.59,19.0,11.0,3.0,-2.0,-4.0,-5.0,-7.0,14.0,-0.0615234375,0.00262451171875,-0.9954833984375,-0.0726318359375,0.13916015625,-0.0068359375,0.9736328125,1.5625,0.0,-1.4375
2.595,-2.0,9.0,4.0,-5.0,-1.0,-7.0,-13.0,1.0,-0.0611572265625,0.00177001953125,-0.9954833984375,-0.07275390625,0.11474609375,-0.01123046875,0.9931640625,0.0625,-0.5625,0.8125
2.6,-5.0,-12.0,-8.0,-5.0,-9.0,-7.0,0.0,-1.0,-0.062744140625,-0.00054931640625,-0.99542236328125,-0.0728759765625,0.130859375,0.02587890625,0.99462890625,0.0,0.8125,0.0625
2.605,-18.0,-42.0,-22.0,-8.0,-14.0,1.0,19.0,2.0,-0.0633544921875,-0.004638671875,-0.99530029296875,-0.0733642578125,0.13427734375,0.00732421875,0.99853515625,4.625,0.5625,-0.6875
2.61,-5.0,-27.0,-21.0,-6.0,0.0,-21.0,-19.0,0.0,-0.058349609375,-0.01336669921875,-0.99554443359375,-0.072998046875,0.1142578125,0.11083984375,0.96826171875,-2.3125,9.375,3.875
2.615,-14.0,-68.0,-7.0,12.0,-2.0,32.0,1.0,6.0,-0.05291748046875,0.00115966796875,-0.9962158203125,-0.069091796875,0.111328125,-0.0224609375,1.00048828125,-7.875,3.375,4.125
2.62,-4.0,-32.0,-29.0,-19.0,-25.0,45.0,126.0,43.0,-0.05072021484375,0.01031494140625,-0.99639892578125,-0.0673828125,0.10546875,-0.05419921875,1.01611328125,-2.0,2.625,1.6875
2.625,-3.0,12.0,21.0,5.0,-20.0,-16.0,-4.0,-17.0,-0.05218505859375,0.00762939453125,-0.99639892578125,-0.067138671875,0.1015625,0.001953125,1.0087890625,1.5625,-7.1875,-5.5625
2.63,-3.0,-29.0,-4.0,6.0,5.0,0.0,-7.0,-14.0,-0.06036376953125,-0.00262451171875,-0.99560546875,-0.07208251953125,0.0888671875,0.00048828125,0.9677734375,7.5625,-7.25,-0.8125
2.635,2.0,33.0,8.0,0.0,-7.0,0.0,-1.0,-5.0,-0.06536865234375,-0.00701904296875,-0.99505615234375,-0.07513427734375,0.13623046875,-0.00830078125,0.99853515625,-0.375,-1.5625,-2.3125
2.64,11.0,5.0,-6.0,-10.0,-3.0,-3.0,-4.0,-4.0,-0.0648193359375,-0.00408935546875,-0.99505615234375,-0.07537841796875,0.12060546875,0.04248046875,0.9931640625,-8.375,2.625,1.8125
2.645,-9.0,-9.0,-26.0,-2.0,-2.0,-4.0,0.0,-1.0,-0.0633544921875,0.003173828125,-0.99530029296875,-0.0733642578125,0.125,-0.0009765625,0.98388671875,-0.1875,0.875,-0.4375
2.65,-9.0,-31.0,-38.0,-12.0,-9.0,-3.0,-3.0,-3.0,-0.0631103515625,0.00518798828125,-0.99542236328125,-0.072021484375,0.13232421875,0.01611328125,0.98388671875,2.375,0.875,1.625
2.655,-5.0,-11.0,-20.0,-2.0,-1.0,-3.0,-1.0,-4.0,-0.06378173828125,0.0048828125,-0.99554443359375,-0.0701904296875,0.1337890625,0.01708984375,0.9892578125,2.0,-1.0625,0.4375
2.66,4.0,37.0,14.0,0.0,0.0,0.0,1.0,2.0,-0.06414794921875,0.00531005859375,-0.99554443359375,-0.06964111328125,0.13916015625,0.01953125,0.98876953125,-1.0,1.375,0.8125
2.665,5.0,43.0,4.0,0.0,-1.0,2.0,-6.0,-4.0,-0.06402587890625,0.00543212890625,-0.99554443359375,-0.06964111328125,0.13037109375,0.02294921875,0.9921875,2.4375,0.75,-3.25
2.67,0.0,-4.0,-1.0,1.0,1.0,-1.0,-6.0,-1.0,-0.0635986328125,0.00677490234375,-0.9954833984375,-0.07025146484375,0.13134765625,-0.01708984375,0.98828125,-0.3125,0.75,0.0
2.675,-4.0,7.0,3.0,-2.0,3.0,0.0,-2.0,-8.0,-0.06353759765625,0.0069580078125,-0.9954833984375,-0.0706787109375,0.1328125,-0.02099609375,0.9873046875,0.4375,-0.125,0.375
2.68,3.0,-1.0,-1.0,-2.0,4.0,4.0,-2.0,2.0,-0.06182861328125,0.0089111328125,-0.99560546875,-0.06988525390625,0.125,-0.0234375,0.99169921875,-0.5,1.0625,2.4375
2.685,5.0,11.0,8.0,6.0,5.0,3.0,2.0,3.0,-0.06207275390625,0.0098876953125,-0.9957275390625,-0.0684814453125,0.130859375,-0.01806640625,0.99755859375,2.125,-0.625,1.6875
2.69,6.0,-45.0,-4.0,-4.0,-3.0,-1.0,2.0,5.0,-0.0618896484375,0.00701904296875,-0.99578857421875,-0.06793212890625,0.1328125,-0.0009765625,0.9892578125,1.75,0.6875,-1.8125
2.695,3.0,38.0,0.0,-1.0,2.0,3.0,0.0,-6.0,-0.06103515625,0.0037841796875,-0.9957275390625,-0.0693359375,0.13134765625,0.0224609375,0.98095703125,0.5625,0.5,-2.1875
2.7,-4.0,-14.0,-7.0,1.0,-6.0,-5.0,-3.0,-8.0,-0.06085205078125,0.00128173828125,-0.9957275390625,-0.07025146484375,0.126953125,0.0244140625,0.9892578125,-0.125,1.5,-3.75
2.705,1.0,3.0,-2.0,2.0,-6.0,-1.0,6.0,2.0,-0.059814453125,-0.00018310546875,-0.99566650390625,-0.07171630859375,0.11767578125,-0.00927734375,0.99169921875,-1.0,0.375,0.5
2.71,-9.0,7.0,7.0,-1.0,-1.0,2.0,-5.0,-1.0,-0.05938720703125,-0.0030517578125,-0.99560546875,-0.07244873046875,0.13427734375,0.0302734375,0.990234375,0.875,2.625,0.0625
2.715,-4.0,-12.0,-11.0,-5.0,-9.0,-18.0,-19.0,-49.0,-0.05877685546875,-0.007080078125,-0.99560546875,-0.07318115234375,0.1259765625,0.0078125,0.986328125,6.25,0.0,-1.3125
2.72,7.0,-9.0,-10.0,-19.0,2.0,-30.0,-18.0,41.0,-0.05499267578125,-0.00927734375,-0.99591064453125,-0.0712890625,0.1357421875,0.04638671875,0.99853515625,-5.3125,7.25,3.0625
2.725,-19.0,27.0,28.0,7.0,30.0,-5.0,-60.0,34.0,-0.05096435546875,-0.00177001953125,-0.996337890625,-0.0687255859375,0.123046875,0.0107421875,0.9814453125,6.375,1.5,0.4375
2.73,-11.0,-44.0,-38.0,4.0,7.0,-13.0,-56.0,-26.0,-0.05096435546875,0.0054931640625,-0.9964599609375,-0.067138671875,0.0859375,0.00244140625,1.01025390625,10.5625,-0.9375,4.8125
2.735,18.0,53.0,9.0,-1.0,-2.0,-9.0,-6.0,0.0,-0.05108642578125,-0.00091552734375,-0.99639892578125,-0.068115234375,0.07958984375,-0.0009765625,1.03466796875,8.5,-4.625,-6.75
2.74,-2.0,-15.0,-16.0,-6.0,4.0,-5.0,-11.0,0.0,-0.058349609375,-0.01171875,-0.9954833984375,-0.0743408203125,0.1513671875,0.01025390625,0.9921875,11.6875,-5.75,-7.125
2.745,-22.0,-70.0,-16.0,0.0,-1.0,-4.0,-9.0,-4.0,-0.0582275390625,-0.01202392578125,-0.99542236328125,-0.0755615234375,0.115234375,0.095703125,0.96484375,-1.0625,2.8125,0.5
2.75,-26.0,-79.0,-14.0,-8.0,0.0,-1.0,-7.0,-13.0,-0.0567626953125,0.00439453125,-0.99578857421875,-0.072509765625,0.1328125,-0.0634765625,0.99365234375,-4.375,-1.5,1.0625
2.755,-7.0,8.0,9.0,-6.0,-4.0,4.0,-4.0,0.0,-0.05816650390625,0.00640869140625,-0.995849609375,-0.070068359375,0.1162109375,-0.03466796875,0.98876953125,-3.5,-1.3125,3.375
