time,channel_1,channel_2,channel_3,channel_4,channel_5,channel_6,channel_7,channel_8,orientation_x,orientation_y,orientation_z,orientation_w,acceleration_x,acceleration_y,acceleration_z,gyroscope_x,gyroscope_y,gyroscope_z
0.005,-2.0,-8.0,-6.0,4.0,2.0,0.0,1.0,0.0,0.0714111328125,-0.0391845703125,0.9962158203125,-0.02899169921875,0.1474609375,-0.07763671875,0.9892578125,0.5,0.8125,-0.0625
0.01,-1.0,1.0,3.0,5.0,0.0,-1.0,-1.0,-2.0,0.071533203125,-0.03900146484375,0.9962158203125,-0.02911376953125,0.1435546875,-0.08544921875,0.984375,0.8125,-0.5625,0.3125
0.015,-2.0,-13.0,-11.0,-2.0,2.0,0.0,0.0,-1.0,0.0716552734375,-0.0396728515625,0.9962158203125,-0.02880859375,0.13330078125,-0.08203125,0.97998046875,-0.9375,-0.625,-0.875
0.02,2.0,-1.0,-2.0,-1.0,4.0,1.0,-1.0,0.0,0.07171630859375,-0.03961181640625,0.9962158203125,-0.02880859375,0.13525390625,-0.07763671875,0.98388671875,-0.5,0.625,-0.4375
0.025,1.0,-2.0,1.0,-1.0,-6.0,-1.0,-1.0,1.0,0.07183837890625,-0.03936767578125,0.9962158203125,-0.02734375,0.14111328125,-0.0791015625,0.99169921875,-1.1875,-0.5,-1.6875
0.03,-1.0,2.0,2.0,-1.0,0.0,0.0,-2.0,-3.0,0.07220458984375,-0.0389404296875,0.99627685546875,-0.02618408203125,0.14892578125,-0.07861328125,0.98681640625,-0.25,1.1875,-0.75
0.035,-1.0,-1.0,-5.0,-2.0,-2.0,1.0,8.0,-4.0,0.0706787109375,-0.03912353515625,0.99639892578125,-0.02410888671875,0.1396484375,-0.087890625,0.9912109375,1.8125,1.0625,-1.4375
0.04,-6.0,11.0,1.0,1.0,1.0,1.0,13.0,15.0,0.069091796875,-0.0343017578125,0.9967041015625,-0.0238037109375,0.13134765625,-0.06005859375,0.9990234375,6.625,1.5,2.1875
0.045,25.0,91.0,26.0,1.0,-4.0,-2.0,-8.0,19.0,0.06695556640625,-0.0289306640625,0.99700927734375,-0.025390625,0.134765625,-0.05029296875,0.9921875,8.8125,2.875,0.875
0.05,-45.0,32.0,1.0,3.0,-3.0,-6.0,-9.0,-23.0,0.064453125,-0.02001953125,0.99737548828125,-0.02581787109375,0.130859375,-0.056640625,0.982421875,7.8125,3.5,-1.75
0.055,50.0,-76.0,9.0,7.0,14.0,9.0,7.0,7.0,0.06475830078125,-0.0191650390625,0.9974365234375,-0.02294921875,0.1396484375,-0.0517578125,0.978515625,0.3125,0.75,-1.125
0.06,-54.0,-115.0,-40.0,-1.0,8.0,46.0,-10.0,-33.0,0.0662841796875,-0.02081298828125,0.997314453125,-0.02203369140625,0.138671875,-0.0419921875,0.9892578125,-2.5,-1.1875,-0.75
0.065,-39.0,-29.0,2.0,13.0,4.0,-10.0,-23.0,-1.0,0.06732177734375,-0.0244140625,0.99713134765625,-0.02288818359375,0.111328125,-0.04931640625,0.99365234375,-8.375,0.5,0.3125
0.07,-12.0,-28.0,-14.0,-4.0,-4.0,-8.0,-2.0,-8.0,0.06439208984375,-0.0250244140625,0.997314453125,-0.0225830078125,0.13232421875,-0.03857421875,1.00732421875,-0.3125,4.75,-2.3125
0.075,2.0,-3.0,-8.0,-3.0,7.0,9.0,-1.0,5.0,0.05670166015625,-0.03125,0.99755859375,-0.02398681640625,0.107421875,-0.07275390625,1.037109375,-3.875,4.375,3.1875
0.08,-11.0,-13.0,-7.0,-3.0,-3.0,-5.0,8.0,1.0,0.05010986328125,-0.0343017578125,0.99774169921875,-0.0277099609375,0.09619140625,-0.09912109375,0.99951171875,-6.6875,4.75,2.6875
0.085,-4.0,17.0,5.0,0.0,-2.0,-1.0,-3.0,-1.0,0.05096435546875,-0.0382080078125,0.99755859375,-0.0277099609375,0.11767578125,-0.0947265625,0.9912109375,1.5,-1.4375,-0.3125
0.09,-1.0,1.0,4.0,2.0,-1.0,-1.0,1.0,3.0,0.052490234375,-0.0404052734375,0.9974365234375,-0.02685546875,0.09716796875,-0.091796875,0.99072265625,-8.0,-2.3125,-1.1875
0.095,-1.0,-1.0,5.0,3.0,9.0,4.0,-6.0,-4.0,0.0572509765625,-0.0382080078125,0.99725341796875,-0.0262451171875,0.11669921875,-0.068359375,0.98681640625,2.375,-5.4375,-1.25
0.1,-3.0,-4.0,-6.0,-2.0,-3.0,-2.0,-4.0,-3.0,0.064453125,-0.03875732421875,0.996826171875,-0.02435302734375,0.1337890625,-0.07861328125,0.990234375,2.75,-6.625,-2.1875
0.105,-1.0,-2.0,3.0,2.0,3.0,2.0,-4.0,-8.0,0.070068359375,-0.03912353515625,0.9964599609375,-0.02288818359375,0.13916015625,-0.07177734375,0.9921875,-1.0,-2.25,-0.5625
0.11,0.0,1.0,3.0,-1.0,-7.0,-2.0,0.0,2.0,0.07147216796875,-0.03955078125,0.99639892578125,-0.02215576171875,0.14794921875,-0.07666015625,0.98876953125,1.625,-0.75,-0.75
0.115,1.0,1.0,1.0,-2.0,4.0,4.0,-1.0,-4.0,0.0709228515625,-0.04052734375,0.99639892578125,-0.021728515625,0.14208984375,-0.08251953125,0.9892578125,1.4375,1.5,-0.8125
0.12,-1.0,-7.0,-8.0,0.0,6.0,6.0,9.0,3.0,0.069091796875,-0.04107666015625,0.99652099609375,-0.02154541015625,0.13671875,-0.0830078125,0.98583984375,1.0,1.5625,0.125
0.125,-14.0,5.0,8.0,1.0,0.0,1.0,6.0,9.0,0.06768798828125,-0.04071044921875,0.99664306640625,-0.02056884765625,0.14111328125,-0.076171875,0.9814453125,-0.75,2.625,-2.0
0.13,13.0,35.0,29.0,4.0,0.0,2.0,6.0,-20.0,0.067626953125,-0.03570556640625,0.996826171875,-0.0194091796875,0.13232421875,-0.0927734375,0.9833984375,11.3125,0.0,-2.8125
0.135,-36.0,-66.0,-39.0,-9.0,0.0,0.0,-12.0,1.0,0.067138671875,-0.02764892578125,0.99713134765625,-0.01904296875,0.12646484375,-0.037109375,0.96240234375,11.0625,0.6875,-2.1875
0.14,-27.0,5.0,-20.0,-4.0,0.0,6.0,-30.0,-48.0,0.06793212890625,-0.025634765625,0.9971923828125,-0.0166015625,0.14404296875,-0.05859375,0.9658203125,2.0625,0.125,-0.375
0.145,16.0,-74.0,-10.0,-9.0,-7.0,-14.0,-13.0,2.0,0.06744384765625,-0.02398681640625,0.99725341796875,-0.01873779296875,0.1435546875,-0.06689453125,0.986328125,-8.6875,1.1875,3.625
0.15,-28.0,-79.0,-34.0,-11.0,-4.0,0.0,-1.0,13.0,0.0654296875,-0.0255126953125,0.997314453125,-0.01849365234375,0.1318359375,-0.06787109375,0.99853515625,-1.8125,0.5,0.9375
0.155,10.0,31.0,6.0,16.0,-2.0,-4.0,-5.0,1.0,0.06207275390625,-0.028564453125,0.9974365234375,-0.0184326171875,0.12158203125,-0.0283203125,0.974609375,-3.625,6.8125,1.875
0.16,5.0,27.0,20.0,-3.0,-6.0,0.0,-3.0,-1.0,0.0560302734375,-0.031494140625,0.99761962890625,-0.02374267578125,0.11669921875,-0.0712890625,0.98681640625,17.25,4.1875,2.0
0.165,12.0,17.0,5.0,-1.0,-3.0,-2.0,-2.0,0.0,0.055419921875,-0.03277587890625,0.99761962890625,-0.0238037109375,0.1142578125,-0.08642578125,0.99755859375,-2.0625,0.5,-0.8125
0.17,17.0,28.0,16.0,2.0,0.0,-1.0,-5.0,-1.0,0.05804443359375,-0.0308837890625,0.99749755859375,-0.0242919921875,0.11572265625,-0.060546875,0.98876953125,0.125,-3.1875,-0.0625
0.175,3.0,-6.0,-13.0,-4.0,-2.0,-1.0,0.0,3.0,0.0628662109375,-0.02569580078125,0.99737548828125,-0.02349853515625,0.12255859375,-0.033203125,0.97314453125,0.0,-6.3125,1.3125
0.18,2.0,6.0,-2.0,-5.0,-4.0,-3.0,-2.0,1.0,0.07049560546875,-0.02593994140625,0.99688720703125,-0.02349853515625,0.150390625,-0.04541015625,0.98779296875,-2.375,-4.8125,-1.6875
0.185,17.0,45.0,23.0,7.0,3.0,3.0,-1.0,10.0,0.07452392578125,-0.02880859375,0.99652099609375,-0.0230712890625,0.150390625,-0.0537109375,0.9921875,-0.6875,-2.75,0.125
0.19,5.0,12.0,-3.0,1.0,1.0,-1.0,11.0,5.0,0.07623291015625,-0.030517578125,0.996337890625,-0.0224609375,0.1533203125,-0.06201171875,0.99755859375,-1.375,0.0625,-0.5625
0.195,0.0,12.0,13.0,1.0,1.0,0.0,4.0,2.0,0.07501220703125,-0.03094482421875,0.9964599609375,-0.021728515625,0.15087890625,-0.05419921875,0.98388671875,0.4375,2.375,-0.4375
0.2,12.0,2.0,6.0,2.0,1.0,1.0,-6.0,3.0,0.07305908203125,-0.031982421875,0.99652099609375,-0.02166748046875,0.14404296875,-0.07177734375,0.9931640625,-2.0625,2.5,0.5
0.205,-7.0,20.0,6.0,2.0,3.0,2.0,2.0,3.0,0.0711669921875,-0.02996826171875,0.99676513671875,-0.02117919921875,0.15234375,-0.06787109375,0.98974609375,0.0625,1.875,0.25
0.21,12.0,25.0,-6.0,-7.0,-3.0,10.0,-3.0,1.0,0.06781005859375,-0.02716064453125,0.9970703125,-0.02197265625,0.14306640625,-0.0595703125,0.9990234375,1.8125,2.9375,-0.875
0.215,-53.0,-24.0,-44.0,-10.0,-4.0,2.0,-2.0,-24.0,0.0645751953125,-0.02520751953125,0.997314453125,-0.021240234375,0.12744140625,-0.0673828125,0.96826171875,1.5625,1.1875,-3.125
0.22,-9.0,-89.0,-35.0,-7.0,5.0,14.0,26.0,24.0,0.0665283203125,-0.0240478515625,0.99725341796875,-0.01910400390625,0.14794921875,-0.0595703125,0.98583984375,0.0625,-2.9375,-1.1875
0.225,-10.0,-51.0,-8.0,10.0,8.0,17.0,-13.0,18.0,0.067626953125,-0.02294921875,0.99725341796875,-0.01904296875,0.1376953125,-0.03271484375,0.9892578125,1.4375,-0.6875,-0.625
0.23,-20.0,3.0,-35.0,-6.0,0.0,-7.0,-14.0,-13.0,0.067626953125,-0.02447509765625,0.99725341796875,-0.01763916015625,0.1298828125,-0.041015625,0.98388671875,-5.375,0.3125,-2.125
0.235,10.0,54.0,54.0,5.0,-4.0,-8.0,-6.0,-1.0,0.0655517578125,-0.02587890625,0.997314453125,-0.0177001953125,0.13916015625,-0.02880859375,1.0068359375,1.4375,1.5,-2.5625
0.24,-9.0,20.0,9.0,-4.0,-1.0,-6.0,-9.0,-4.0,0.06329345703125,-0.02703857421875,0.9974365234375,-0.01776123046875,0.15869140625,-0.01171875,1.01025390625,-4.9375,6.0625,-1.8125
0.245,1.0,47.0,25.0,-1.0,2.0,0.0,-4.0,-3.0,0.06005859375,-0.027587890625,0.99749755859375,-0.023193359375,0.12939453125,0.0283203125,1.0068359375,8.125,6.5,-1.125
0.25,-2.0,-16.0,-4.0,2.0,0.0,-2.0,13.0,7.0,0.05975341796875,-0.03131103515625,0.99737548828125,-0.0238037109375,0.1064453125,-0.03173828125,0.98486328125,3.75,-1.3125,0.875
0.255,0.0,16.0,9.0,4.0,4.0,-1.0,-7.0,-6.0,0.06451416015625,-0.02484130859375,0.997314453125,-0.0238037109375,0.14111328125,-0.015625,0.966796875,7.9375,-4.375,-3.125
0.26,2.0,27.0,7.0,2.0,-2.0,-1.0,-2.0,2.0,0.06951904296875,-0.028076171875,0.99688720703125,-0.02227783203125,0.15283203125,-0.0771484375,0.984375,0.875,-6.0625,-1.4375
0.265,2.0,-15.0,-14.0,-4.0,-8.0,-5.0,-1.0,11.0,0.074462890625,-0.0286865234375,0.99658203125,-0.0213623046875,0.15087890625,-0.05712890625,0.9951171875,-0.75,-2.6875,-1.8125
0.27,-2.0,-4.0,4.0,4.0,3.0,0.0,-7.0,-7.0,0.0762939453125,-0.02996826171875,0.99639892578125,-0.02081298828125,0.15625,-0.056640625,0.99951171875,-0.0625,-0.25,0.125
0.275,6.0,-11.0,-3.0,-1.0,-4.0,-4.0,-13.0,-12.0,0.075439453125,-0.0313720703125,0.99639892578125,-0.0203857421875,0.15771484375,-0.06494140625,0.9951171875,0.1875,1.9375,-0.5625
0.28,12.0,39.0,16.0,3.0,-5.0,-3.0,-4.0,-15.0,0.0731201171875,-0.033203125,0.99658203125,-0.01898193359375,0.14794921875,-0.0634765625,0.9814453125,0.25,3.125,-2.6875
0.285,-1.0,32.0,10.0,-2.0,-3.0,-7.0,-22.0,-22.0,0.0693359375,-0.03057861328125,0.9969482421875,-0.01800537109375,0.13720703125,-0.0390625,0.98974609375,-0.875,1.6875,-2.25
0.29,24.0,10.0,-12.0,-6.0,-11.0,-5.0,-4.0,-6.0,0.06689453125,-0.02734375,0.9971923828125,-0.01629638671875,0.130859375,-0.04248046875,0.982421875,7.6875,1.75,-2.8125
0.295,27.0,-35.0,-13.0,5.0,1.0,2.0,4.0,9.0,0.06536865234375,-0.01873779296875,0.99755859375,-0.01385498046875,0.1298828125,-0.02099609375,0.9814453125,5.0625,2.3125,-7.125
0.3,20.0,26.0,5.0,7.0,0.0,-10.0,10.0,35.0,0.0625,-0.0218505859375,0.9976806640625,-0.01324462890625,0.150390625,-0.12255859375,1.00048828125,0.875,5.125,0.6875
0.305,15.0,60.0,15.0,0.0,-13.0,-5.0,-3.0,13.0,0.059814453125,-0.02313232421875,0.997802734375,-0.01348876953125,0.11181640625,-0.0771484375,0.98291015625,0.625,-0.8125,0.625
0.31,75.0,61.0,37.0,8.0,1.0,8.0,27.0,29.0,0.0587158203125,-0.02392578125,0.9979248046875,-0.01104736328125,0.12060546875,-0.05859375,0.98095703125,2.625,3.0,-2.0
0.315,10.0,9.0,-6.0,-3.0,1.0,0.0,0.0,-8.0,0.05706787109375,-0.02484130859375,0.99798583984375,-0.01043701171875,0.123046875,-0.078125,0.98583984375,-2.0625,1.125,0.4375
0.32,-10.0,-6.0,-4.0,2.0,5.0,0.0,1.0,-4.0,0.05413818359375,-0.02813720703125,0.99798583984375,-0.0135498046875,0.1025390625,-0.1044921875,1.00634765625,-1.25,3.4375,5.0
0.325,8.0,-6.0,-12.0,-3.0,-5.0,-5.0,17.0,8.0,0.05218505859375,-0.03472900390625,0.99786376953125,-0.0169677734375,0.10205078125,-0.0888671875,1.015625,1.5,3.9375,5.25
0.33,12.0,16.0,2.0,-3.0,-3.0,-2.0,-6.0,17.0,0.05242919921875,-0.03656005859375,0.997802734375,-0.017333984375,0.1103515625,-0.09619140625,0.9755859375,7.25,-1.875,1.0
0.335,-12.0,11.0,5.0,1.0,-5.0,-7.0,-7.0,0.0,0.056640625,-0.0394287109375,0.9974365234375,-0.01837158203125,0.11474609375,-0.06982421875,0.97412109375,-7.5,-2.75,0.5625
0.34,16.0,11.0,-1.0,-1.0,0.0,5.0,3.0,-3.0,0.06304931640625,-0.03863525390625,0.99700927734375,-0.0205078125,0.13818359375,-0.07958984375,1.01806640625,6.4375,-6.5,3.1875
0.345,5.0,-10.0,0.0,1.0,-4.0,-2.0,5.0,4.0,0.0697021484375,-0.031494140625,0.996826171875,-0.02154541015625,0.16943359375,-0.111328125,0.9931640625,2.375,-3.75,-2.75
0.35,10.0,-14.0,-12.0,-1.0,9.0,3.0,5.0,4.0,0.07080078125,-0.0303955078125,0.996826171875,-0.01849365234375,0.13427734375,-0.07958984375,0.98583984375,3.75,-0.625,-3.125
0.355,-3.0,1.0,6.0,0.0,-3.0,-5.0,-2.0,1.0,0.06951904296875,-0.02508544921875,0.9970703125,-0.0184326171875,0.13818359375,-0.0517578125,0.98583984375,5.125,2.4375,1.5
0.36,1.0,17.0,9.0,-3.0,-4.0,-7.0,-6.0,-1.0,0.06561279296875,-0.02264404296875,0.997314453125,-0.02093505859375,0.107421875,-0.0283203125,0.97119140625,-0.25,1.875,2.25
0.365,3.0,-5.0,6.0,1.0,1.0,1.0,3.0,7.0,0.0633544921875,-0.01824951171875,0.99749755859375,-0.02392578125,0.10986328125,-0.0244140625,0.98193359375,3.5,-0.1875,2.375
0.37,-1.0,13.0,10.0,1.0,-3.0,0.0,1.0,5.0,0.06365966796875,-0.015380859375,0.99749755859375,-0.024658203125,0.1376953125,-0.0361328125,0.9931640625,0.0625,-1.9375,-1.25
0.375,-4.0,-55.0,-10.0,-3.0,-8.0,-5.0,-13.0,-10.0,0.0634765625,-0.01690673828125,0.99749755859375,-0.02374267578125,0.1318359375,-0.0595703125,0.99072265625,1.625,1.75,-0.4375
0.38,16.0,51.0,20.0,6.0,-5.0,-5.0,5.0,-2.0,0.06170654296875,-0.01483154296875,0.99774169921875,-0.02178955078125,0.1279296875,-0.037109375,1.00146484375,2.75,1.1875,-1.5625
0.385,48.0,16.0,18.0,10.0,2.0,2.0,9.0,17.0,0.0611572265625,-0.01080322265625,0.997802734375,-0.022216796875,0.1279296875,-0.00390625,0.99267578125,4.4375,2.0,-0.9375
0.39,22.0,38.0,21.0,3.0,-10.0,-28.0,-39.0,-24.0,0.056640625,-0.01123046875,0.99810791015625,-0.0201416015625,0.10791015625,-0.02197265625,1.00244140625,0.0,5.125,-4.75
0.395,29.0,59.0,15.0,7.0,-4.0,-6.0,5.0,44.0,0.0523681640625,-0.0126953125,0.99835205078125,-0.01953125,0.08935546875,-0.0390625,0.9833984375,-4.125,0.5,2.9375
0.4,-43.0,19.0,-6.0,-11.0,-9.0,-15.0,-15.0,-7.0,0.0516357421875,-0.01214599609375,0.9984130859375,-0.01788330078125,0.11279296875,0.02392578125,1.009765625,-0.375,0.5625,-3.75
0.405,5.0,-38.0,19.0,15.0,5.0,7.0,-3.0,11.0,0.0513916015625,-0.01251220703125,0.9984130859375,-0.01788330078125,0.13916015625,-0.025390625,1.01513671875,2.5625,1.625,2.9375
0.41,-18.0,-17.0,-1.0,-2.0,-6.0,-6.0,-9.0,-9.0,0.0479736328125,-0.01788330078125,0.9984130859375,-0.0211181640625,0.08984375,-0.12158203125,1.0,-3.5,2.625,8.75
0.415,-16.0,7.0,10.0,-1.0,-3.0,-5.0,-6.0,-8.0,0.0474853515625,-0.0186767578125,0.9984130859375,-0.0224609375,0.11376953125,-0.017578125,0.98291015625,3.4375,-0.4375,-2.4375
0.42,-8.0,0.0,2.0,-1.0,-3.0,0.0,-1.0,-3.0,0.04852294921875,-0.02264404296875,0.998291015625,-0.0218505859375,0.12451171875,-0.06298828125,0.9814453125,-3.75,-2.0,-6.125
0.425,-1.0,6.0,8.0,0.0,3.0,1.0,3.0,-6.0,0.0511474609375,-0.027099609375,0.99810791015625,-0.01959228515625,0.09765625,-0.0439453125,0.99658203125,10.625,-1.25,-2.1875
0.43,8.0,11.0,-1.0,4.0,2.0,0.0,-2.0,-1.0,0.0546875,-0.03070068359375,0.99786376953125,-0.01763916015625,0.11376953125,-0.07958984375,1.001953125,-2.75,-3.9375,-2.625
0.435,-9.0,-12.0,3.0,3.0,5.0,1.0,3.0,0.0,0.05950927734375,-0.029052734375,0.99761962890625,-0.0162353515625,0.12158203125,-0.06201171875,1.0078125,-5.6875,-2.9375,-0.4375
0.44,6.0,26.0,6.0,0.0,-7.0,-8.0,-2.0,2.0,0.059326171875,-0.029052734375,0.9976806640625,-0.015380859375,0.12548828125,-0.05078125,0.9892578125,1.375,1.9375,-1.0625
0.445,-6.0,4.0,0.0,-1.0,0.0,1.0,1.0,-2.0,0.05908203125,-0.02862548828125,0.9976806640625,-0.01470947265625,0.1337890625,-0.0703125,0.98486328125,2.375,0.125,-0.625
0.45,-3.0,-13.0,-6.0,-3.0,-2.0,-2.0,-2.0,4.0,0.0599365234375,-0.02801513671875,0.9976806640625,-0.01409912109375,0.11572265625,-0.0458984375,0.9912109375,0.75,-1.625,-1.0
0.455,-5.0,1.0,0.0,-2.0,-7.0,-7.0,0.0,4.0,0.059814453125,-0.0264892578125,0.99774169921875,-0.01287841796875,0.11572265625,-0.05810546875,0.99072265625,-2.25,0.875,-1.5
0.46,-12.0,-6.0,-1.0,1.0,-4.0,-5.0,4.0,0.0,0.0594482421875,-0.0294189453125,0.9976806640625,-0.01129150390625,0.1220703125,-0.0654296875,0.99609375,-1.9375,0.75,0.0625
0.465,-4.0,-62.0,-43.0,-14.0,-5.0,-2.0,-5.0,-15.0,0.06005859375,-0.02899169921875,0.9976806640625,-0.01190185546875,0.12060546875,-0.052734375,1.00048828125,0.1875,-0.3125,0.9375
0.47,-31.0,-13.0,-19.0,-7.0,-4.0,-5.0,2.0,5.0,0.060791015625,-0.026123046875,0.9976806640625,-0.01422119140625,0.13671875,-0.06591796875,0.99755859375,4.875,0.6875,2.5
0.475,40.0,23.0,-15.0,0.0,1.0,-3.0,-28.0,-27.0,0.059326171875,-0.02093505859375,0.9979248046875,-0.013427734375,0.119140625,-0.029296875,0.986328125,0.4375,1.25,-3.125
0.48,-10.0,-11.0,-13.0,-6.0,0.0,-7.0,43.0,-2.0,0.0596923828125,-0.0172119140625,0.99798583984375,-0.01190185546875,0.12890625,-0.01318359375,0.98388671875,5.9375,0.25,-3.875
0.485,45.0,61.0,26.0,8.0,9.0,14.0,-22.0,14.0,0.058837890625,-0.0172119140625,0.998046875,-0.010498046875,0.11279296875,0.00146484375,0.966796875,-3.625,1.8125,-0.9375
0.49,-1.0,22.0,30.0,22.0,2.0,-8.0,-3.0,20.0,0.057373046875,-0.01898193359375,0.99810791015625,-0.0096435546875,0.11474609375,-0.03173828125,0.99560546875,-10.3125,0.5,-0.1875
0.495,-18.0,-43.0,-14.0,-4.0,-1.0,-6.0,-21.0,-44.0,0.05780029296875,-0.0224609375,0.99798583984375,-0.0091552734375,0.1416015625,-0.06591796875,0.99609375,-1.4375,-1.0625,0.25
0.5,21.0,31.0,34.0,14.0,1.0,6.0,8.0,9.0,0.05694580078125,-0.0230712890625,0.998046875,-0.00836181640625,0.12451171875,-0.044921875,1.00439453125,-1.0625,2.125,-2.0625
0.505,-10.0,-4.0,2.0,-3.0,-14.0,-11.0,9.0,0.0,0.0516357421875,-0.028564453125,0.9981689453125,-0.01165771484375,0.087890625,-0.09619140625,0.9921875,1.9375,2.8125,3.4375
0.51,4.0,6.0,4.0,4.0,-5.0,-9.0,-10.0,-10.0,0.04913330078125,-0.0277099609375,0.998291015625,-0.01348876953125,0.07080078125,-0.044921875,0.9755859375,-5.0625,-0.75,-0.1875
0.515,2.0,18.0,9.0,0.0,0.0,-3.0,0.0,10.0,0.05047607421875,-0.028564453125,0.99822998046875,-0.01300048828125,0.0986328125,-0.06787109375,0.97607421875,0.25,-2.4375,1.1875
0.52,-3.0,-11.0,-10.0,3.0,9.0,8.0,4.0,10.0,0.05743408203125,-0.02813720703125,0.997802734375,-0.01373291015625,0.12060546875,-0.0673828125,0.9765625,2.6875,-7.5,-0.4375
0.525,-8.0,-21.0,3.0,4.0,1.0,3.0,-1.0,-9.0,0.06683349609375,-0.02557373046875,0.997314453125,-0.0137939453125,0.154296875,-0.04736328125,0.994140625,4.125,-7.4375,-1.25
0.53,-3.0,5.0,9.0,1.0,2.0,-1.0,-19.0,-21.0,0.071044921875,-0.02532958984375,0.99700927734375,-0.01373291015625,0.1396484375,-0.04541015625,1.00341796875,-1.0625,-2.0,-1.0
0.535,0.0,49.0,14.0,8.0,4.0,-2.0,-1.0,-1.0,0.07110595703125,-0.02630615234375,0.99700927734375,-0.01409912109375,0.14697265625,-0.05029296875,0.99169921875,0.6875,1.125,0.8125
0.54,4.0,-6.0,-10.0,-2.0,-4.0,-2.0,-9.0,-3.0,0.06915283203125,-0.02685546875,0.9970703125,-0.01519775390625,0.13671875,-0.0400390625,0.98974609375,-1.0,3.1875,1.25
0.545,-4.0,13.0,-11.0,-3.0,0.0,-1.0,4.0,19.0,0.0665283203125,-0.0269775390625,0.99725341796875,-0.01617431640625,0.14013671875,-0.0537109375,1.001953125,2.75,2.3125,0.75
0.55,-3.0,-13.0,9.0,-5.0,0.0,-1.0,-2.0,15.0,0.06304931640625,-0.02374267578125,0.99755859375,-0.0181884765625,0.115234375,-0.04345703125,0.98046875,2.9375,1.625,1.625
0.555,7.0,40.0,12.0,8.0,5.0,3.0,4.0,-10.0,0.06048583984375,-0.02001953125,0.99774169921875,-0.019775390625,0.12939453125,-0.01953125,0.9921875,7.6875,5.0,0.375
0.56,-74.0,-90.0,-66.0,-9.0,-6.0,-46.0,-31.0,-96.0,0.05743408203125,-0.01416015625,0.998046875,-0.01995849609375,0.115234375,0.00439453125,0.97900390625,3.6875,3.4375,-0.3125
0.565,49.0,49.0,63.0,-3.0,-4.0,23.0,9.0,20.0,0.0560302734375,-0.01580810546875,0.99810791015625,-0.0191650390625,0.10791015625,-0.03564453125,0.96875,-6.1875,1.0,-2.125
0.57,3.0,-6.0,-28.0,-13.0,-4.0,0.0,-26.0,11.0,0.05621337890625,-0.01837158203125,0.998046875,-0.01898193359375,0.11865234375,-0.0693359375,0.98095703125,-4.4375,0.0625,0.6875
0.575,71.0,79.0,80.0,4.0,-10.0,-18.0,0.0,-18.0,0.0587158203125,-0.019775390625,0.99786376953125,-0.0194091796875,0.130859375,-0.05322265625,0.98876953125,-1.25,-1.6875,0.1875
0.58,43.0,93.0,58.0,17.0,6.0,16.0,20.0,18.0,0.059326171875,-0.019287109375,0.99786376953125,-0.0179443359375,0.140625,0.001953125,0.9912109375,-0.875,0.9375,-3.0625
0.585,13.0,-5.0,-14.0,-3.0,-1.0,0.0,0.0,13.0,0.0574951171875,-0.021484375,0.9979248046875,-0.0172119140625,0.125,-0.0146484375,0.96923828125,-7.8125,4.375,0.625
0.59,0.0,-27.0,-36.0,-10.0,-2.0,2.0,-1.0,8.0,0.05389404296875,-0.02459716796875,0.998046875,-0.019287109375,0.09326171875,-0.00244140625,0.96337890625,-7.375,3.0625,-0.375
0.595,0.0,-9.0,-21.0,-2.0,-4.0,-7.0,-11.0,-4.0,0.0552978515625,-0.026123046875,0.99786376953125,-0.021484375,0.12744140625,-0.0927734375,0.99853515625,-3.6875,-0.625,4.4375
0.6,14.0,-3.0,-2.0,-3.0,-6.0,-13.0,-13.0,5.0,0.057373046875,-0.02459716796875,0.997802734375,-0.02154541015625,0.125,-0.05810546875,0.99072265625,2.75,-2.0,1.0625
0.605,-7.0,30.0,5.0,2.0,-1.0,-5.0,-1.0,-15.0,0.0589599609375,-0.0234375,0.99774169921875,-0.0216064453125,0.11865234375,-0.03466796875,0.98779296875,-1.3125,-1.4375,-0.625
0.61,6.0,17.0,5.0,1.0,2.0,-4.0,-1.0,0.0,0.06195068359375,-0.023193359375,0.99749755859375,-0.0224609375,0.12451171875,-0.02880859375,0.97900390625,-2.75,-3.0,0.5625
0.615,0.0,-8.0,1.0,2.0,4.0,1.0,-2.0,6.0,0.06634521484375,-0.02423095703125,0.9971923828125,-0.0228271484375,0.13916015625,-0.02685546875,0.9912109375,-2.3125,-2.1875,0.3125
0.62,2.0,3.0,-2.0,-4.0,0.0,1.0,1.0,-1.0,0.068359375,-0.02471923828125,0.9970703125,-0.02325439453125,0.14111328125,-0.05126953125,0.99755859375,-1.5,-1.1875,0.1875
0.625,0.0,7.0,4.0,-1.0,-3.0,-2.0,3.0,11.0,0.06787109375,-0.02508544921875,0.9970703125,-0.0228271484375,0.1396484375,-0.06103515625,0.990234375,-0.875,1.3125,-0.5625
0.63,-24.0,-18.0,-2.0,-3.0,-5.0,-8.0,-23.0,-4.0,0.06658935546875,-0.02606201171875,0.9971923828125,-0.02191162109375,0.13818359375,-0.04833984375,0.994140625,-0.5,1.5,-1.5
0.635,-10.0,5.0,-11.0,-1.0,-5.0,-2.0,10.0,2.0,0.06475830078125,-0.02557373046875,0.997314453125,-0.02264404296875,0.14404296875,-0.08203125,0.9912109375,6.875,2.625,0.75
0.64,-1.0,33.0,17.0,3.0,2.0,2.0,13.0,9.0,0.0616455078125,-0.022705078125,0.99755859375,-0.02288818359375,0.130859375,-0.06103515625,0.9970703125,6.875,1.4375,-2.0
0.645,17.0,64.0,2.0,4.0,-5.0,0.0,-25.0,-13.0,0.06121826171875,-0.0140380859375,0.99774169921875,-0.02154541015625,0.1376953125,-0.029296875,0.98193359375,9.0625,-0.25,-4.9375
0.65,20.0,-72.0,45.0,11.0,5.0,30.0,8.0,4.0,0.06097412109375,-0.01190185546875,0.997802734375,-0.0216064453125,0.11083984375,-0.05615234375,0.9736328125,2.25,-0.125,1.625
0.655,6.0,121.0,75.0,11.0,5.0,16.0,14.0,7.0,0.0609130859375,-0.012451171875,0.997802734375,-0.021728515625,0.13525390625,-0.0146484375,0.99072265625,-0.75,2.0,1.4375
0.66,-51.0,-78.0,-59.0,-10.0,10.0,27.0,-9.0,-22.0,0.05950927734375,-0.01348876953125,0.99786376953125,-0.0220947265625,0.119140625,-0.03759765625,0.9970703125,-4.5,0.625,-0.25
0.665,-31.0,-25.0,17.0,-1.0,17.0,15.0,-3.0,-10.0,0.05841064453125,-0.01617431640625,0.99786376953125,-0.0235595703125,0.12255859375,-0.05712890625,0.99267578125,1.9375,1.5,2.1875
0.67,-10.0,28.0,-7.0,-6.0,1.0,1.0,-12.0,1.0,0.05517578125,-0.0150146484375,0.99810791015625,-0.0224609375,0.1201171875,0.02099609375,0.9951171875,-1.75,3.5,-3.1875
0.675,-13.0,-26.0,-24.0,-13.0,-4.0,-1.0,4.0,-7.0,0.05279541015625,-0.02252197265625,0.99798583984375,-0.02606201171875,0.11865234375,-0.00634765625,1.0625,3.9375,2.375,-4.25
0.68,7.0,-14.0,6.0,-2.0,-5.0,-6.0,-6.0,-1.0,0.05224609375,-0.02484130859375,0.99786376953125,-0.029296875,0.12109375,-0.0615234375,0.99169921875,0.0625,-0.5625,1.25
0.685,-6.0,-27.0,-7.0,0.0,0.0,1.0,9.0,6.0,0.052978515625,-0.0263671875,0.997802734375,-0.02978515625,0.11279296875,-0.06982421875,0.99365234375,0.8125,-1.625,-0.375
0.69,2.0,-37.0,-35.0,-8.0,-8.0,-6.0,-17.0,2.0,0.0565185546875,-0.0272216796875,0.99755859375,-0.030029296875,0.12646484375,-0.06396484375,0.97314453125,-0.0625,-5.0,-0.9375
0.695,0.0,32.0,8.0,-1.0,-6.0,-1.0,4.0,6.0,0.06280517578125,-0.0264892578125,0.9971923828125,-0.03094482421875,0.125,-0.0615234375,0.974609375,-1.0625,-6.6875,1.5
0.7,0.0,1.0,-1.0,-4.0,-2.0,-1.0,1.0,3.0,0.06817626953125,-0.0255126953125,0.996826171875,-0.031494140625,0.1396484375,-0.04931640625,1.00146484375,-4.1875,-5.75,0.1875
0.705,5.0,5.0,-2.0,-2.0,-7.0,-3.0,3.0,-2.0,0.0716552734375,-0.02569580078125,0.99658203125,-0.03173828125,0.1455078125,-0.06396484375,0.99072265625,-0.6875,-1.75,0.875
0.71,5.0,-19.0,-5.0,2.0,2.0,-2.0,1.0,7.0,0.07147216796875,-0.02496337890625,0.99658203125,-0.0313720703125,0.14501953125,-0.0419921875,0.9921875,0.6875,1.5625,-0.875
0.715,-2.0,9.0,-12.0,-4.0,2.0,3.0,5.0,-14.0,0.0704345703125,-0.02496337890625,0.9967041015625,-0.03082275390625,0.1533203125,-0.041015625,0.994140625,1.125,2.4375,-2.1875
0.72,-4.0,-7.0,3.0,-2.0,1.0,-1.0,-6.0,-33.0,0.068115234375,-0.0240478515625,0.99688720703125,-0.02960205078125,0.12841796875,-0.0400390625,0.99072265625,1.8125,2.5625,-1.5
0.725,-14.0,-29.0,-7.0,-6.0,-5.0,-4.0,-1.0,-10.0,0.06396484375,-0.02099609375,0.997314453125,-0.02734375,0.1259765625,-0.0517578125,0.986328125,0.6875,4.375,-0.5
0.73,-13.0,-22.0,-6.0,0.0,-1.0,1.0,-19.0,-12.0,0.0609130859375,-0.01788330078125,0.99761962890625,-0.02618408203125,0.13037109375,-0.0390625,0.9814453125,3.9375,1.0,-0.5
0.735,-22.0,-61.0,-30.0,-4.0,3.0,9.0,3.0,-17.0,0.06109619140625,-0.01409912109375,0.9976806640625,-0.02496337890625,0.130859375,-0.04541015625,0.9892578125,3.75,1.6875,-0.75
0.74,21.0,-18.0,-8.0,-9.0,-10.0,-11.0,-18.0,-34.0,0.05999755859375,-0.0142822265625,0.997802734375,-0.02392578125,0.13232421875,-0.013671875,0.99560546875,4.25,1.1875,-1.375
0.745,8.0,3.0,-36.0,2.0,5.0,5.0,-3.0,-1.0,0.05908203125,-0.01593017578125,0.99786376953125,-0.02276611328125,0.10888671875,0.03564453125,0.99169921875,-0.3125,1.5,-4.3125
0.75,38.0,-63.0,-36.0,-4.0,-8.0,-27.0,-11.0,11.0,0.05731201171875,-0.01885986328125,0.99786376953125,-0.02325439453125,0.12646484375,-0.0419921875,0.99365234375,-2.4375,2.1875,2.375
0.755,38.0,69.0,36.0,13.0,0.0,4.0,31.0,20.0,0.05596923828125,-0.0203857421875,0.9979248046875,-0.02325439453125,0.10302734375,-0.04833984375,1.001953125,-3.375,1.375,1.25
0.76,-3.0,33.0,81.0,44.0,11.0,-28.0,0.0,-7.0,0.0526123046875,-0.02398681640625,0.998046875,-0.02288818359375,0.0888671875,-0.0302734375,0.97412109375,-13.8125,3.8125,1.0625
0.765,2.0,19.0,5.0,0.0,2.0,7.0,4.0,3.0,0.05126953125,-0.0257568359375,0.9979248046875,-0.02862548828125,0.07177734375,0.025390625,0.9814453125,5.875,2.6875,3.3125
0.77,0.0,-14.0,-11.0,-4.0,-9.0,-5.0,-3.0,-7.0,0.052734375,-0.026611328125,0.997802734375,-0.02960205078125,0.11865234375,-0.0234375,0.98388671875,2.375,-1.3125,-1.375
0.775,11.0,37.0,0.0,-4.0,-2.0,-1.0,2.0,-4.0,0.05450439453125,-0.02801513671875,0.99761962890625,-0.03155517578125,0.115234375,-0.0654296875,0.986328125,-3.6875,-3.3125,-0.6875
0.78,4.0,20.0,17.0,4.0,4.0,4.0,5.0,3.0,0.0579833984375,-0.02728271484375,0.9974365234375,-0.031494140625,0.1044921875,-0.0751953125,0.99072265625,-4.8125,-5.125,1.625
0.785,2.0,9.0,-10.0,-5.0,-5.0,-8.0,-8.0,-6.0,0.0648193359375,-0.02606201171875,0.99700927734375,-0.03118896484375,0.1279296875,-0.0654296875,0.9716796875,2.375,-4.3125,-1.1875
0.79,4.0,-4.0,4.0,2.0,1.0,-3.0,-2.0,-1.0,0.0723876953125,-0.02911376953125,0.9964599609375,-0.02996826171875,0.14892578125,-0.07421875,0.99951171875,-6.1875,-6.375,0.375
0.795,4.0,3.0,-6.0,-1.0,-6.0,-3.0,-2.0,-6.0,0.07342529296875,-0.02947998046875,0.996337890625,-0.0306396484375,0.14599609375,-0.06201171875,0.9970703125,-4.375,1.1875,1.4375
0.8,3.0,14.0,7.0,-2.0,-1.0,2.0,38.0,2.0,0.070556640625,-0.030029296875,0.99652099609375,-0.03082275390625,0.1474609375,-0.0673828125,0.9853515625,0.75,3.5625,-0.3125
0.805,-6.0,24.0,-11.0,-3.0,-4.0,-4.0,-2.0,15.0,0.065185546875,-0.02984619140625,0.9969482421875,-0.0301513671875,0.12646484375,-0.08935546875,0.9853515625,0.5,6.6875,1.125
0.81,5.0,-18.0,-21.0,-4.0,-2.0,-3.0,-3.0,-12.0,0.0592041015625,-0.02569580078125,0.9974365234375,-0.0306396484375,0.12353515625,-0.072265625,0.97607421875,5.5,5.375,1.9375
0.815,13.0,-90.0,-27.0,-3.0,1.0,5.0,12.0,18.0,0.0537109375,-0.0198974609375,0.997802734375,-0.0325927734375,0.11376953125,-0.07568359375,0.9794921875,7.25,5.8125,3.0
0.82,3.0,23.0,-12.0,0.0,10.0,5.0,-4.0,18.0,0.04986572265625,-0.01629638671875,0.998046875,-0.03369140625,0.1015625,-0.064453125,0.97021484375,1.6875,3.1875,-1.5
0.825,14.0,-68.0,-21.0,-11.0,0.0,-2.0,-30.0,-2.0,0.04766845703125,-0.01629638671875,0.998046875,-0.035400390625,0.1220703125,-0.06005859375,1.01806640625,2.75,1.875,3.5
0.83,-15.0,-94.0,-96.0,-21.0,-6.0,-8.0,5.0,3.0,0.04449462890625,-0.01812744140625,0.99810791015625,-0.037109375,0.080078125,-0.02783203125,0.9853515625,4.625,1.6875,1.6875
0.835,-30.0,73.0,26.0,-4.0,-1.0,4.0,6.0,0.0,0.03656005859375,-0.02130126953125,0.9981689453125,-0.04205322265625,0.04833984375,-0.05029296875,0.978515625,-4.0625,6.9375,2.3125
0.84,36.0,22.0,35.0,6.0,-4.0,11.0,0.0,7.0,0.03558349609375,-0.03167724609375,0.99786376953125,-0.04449462890625,0.07958984375,-0.0771484375,0.998046875,-9.4375,-0.3125,4.5625
0.845,-24.0,14.0,-21.0,1.0,-5.0,-12.0,-11.0,-18.0,0.03643798828125,-0.03717041015625,0.99755859375,-0.04583740234375,0.04833984375,-0.0263671875,1.04931640625,0.125,-2.1875,-0.875
0.85,6.0,26.0,13.0,-2.0,-11.0,-17.0,-7.0,3.0,0.044677734375,-0.04302978515625,0.99664306640625,-0.0528564453125,0.1142578125,-0.0751953125,1.017578125,-5.0625,-5.8125,8.375
0.855,7.0,20.0,8.0,-4.0,-4.0,-5.0,-1.0,-1.0,0.05242919921875,-0.048583984375,0.9949951171875,-0.06915283203125,0.10302734375,-0.056640625,1.0087890625,8.75,-9.4375,12.0
0.86,2.0,-16.0,0.0,-2.0,0.0,-1.0,-2.0,5.0,0.06390380859375,-0.05517578125,0.99322509765625,-0.0794677734375,0.12060546875,-0.13037109375,0.95556640625,1.6875,-6.125,6.625
0.865,2.0,-19.0,1.0,0.0,-2.0,-2.0,-2.0,-4.0,0.06561279296875,-0.0546875,0.9930419921875,-0.0809326171875,0.169921875,-0.15283203125,0.958984375,2.75,5.5625,-3.0625
0.87,2.0,29.0,4.0,-4.0,-1.0,0.0,-3.0,2.0,0.06805419921875,-0.05194091796875,0.9935302734375,-0.07452392578125,0.166015625,-0.0947265625,1.01611328125,6.125,-1.8125,-7.25
0.875,6.0,-7.0,1.0,2.0,-5.0,-2.0,-1.0,-15.0,0.07452392578125,-0.03692626953125,0.99407958984375,-0.069091796875,0.1416015625,-0.07861328125,1.02978515625,8.5625,-8.5,-6.875
0.88,4.0,0.0,-5.0,0.0,1.0,-2.0,-3.0,2.0,0.07867431640625,-0.0213623046875,0.99468994140625,-0.06268310546875,0.1396484375,-0.05810546875,0.98779296875,10.625,-2.125,-7.125
0.885,-13.0,-25.0,-1.0,-5.0,0.0,-1.0,0.0,-7.0,0.078125,-0.0098876953125,0.99530029296875,-0.05572509765625,0.1396484375,-0.02197265625,0.9921875,7.5,0.5,-6.0
0.89,-1.0,-13.0,-4.0,-1.0,-1.0,0.0,1.0,-1.0,0.07110595703125,0.005126953125,0.99609375,-0.051025390625,0.109375,0.01416015625,1.005859375,8.9375,6.0,-4.9375
0.895,-4.0,9.0,-4.0,-1.0,-2.0,1.0,-6.0,-10.0,0.06341552734375,0.0147705078125,0.9967041015625,-0.04833984375,0.11279296875,-0.0009765625,0.984375,11.8125,2.8125,-1.5
0.9,16.0,-1.0,9.0,1.0,6.0,4.0,5.0,11.0,0.0570068359375,0.0283203125,0.9967041015625,-0.04931640625,0.10546875,0.04541015625,0.9638671875,12.125,3.125,2.25
0.905,24.0,64.0,8.0,4.0,-7.0,-2.0,-4.0,1.0,0.0540771484375,0.0418701171875,0.9964599609375,-0.0479736328125,0.1279296875,0.09326171875,0.97314453125,9.4375,3.5,-4.4375
0.91,-4.0,59.0,49.0,18.0,7.0,-2.0,-4.0,3.0,0.0496826171875,0.0452880859375,0.99676513671875,-0.04315185546875,0.1240234375,0.11181640625,0.95947265625,0.125,6.25,-12.1875
0.915,-13.0,-59.0,-25.0,-6.0,-20.0,-32.0,-16.0,-15.0,0.04364013671875,0.04296875,0.99713134765625,-0.044189453125,0.09912109375,0.07666015625,0.9462890625,-3.875,5.625,3.375
0.92,38.0,34.0,22.0,1.0,12.0,26.0,3.0,-13.0,0.03997802734375,0.0355224609375,0.99755859375,-0.0445556640625,0.08642578125,0.04833984375,0.998046875,0.125,2.4375,0.5625
0.925,-30.0,-35.0,-1.0,0.0,-2.0,-2.0,-11.0,-16.0,0.037353515625,0.03192138671875,0.99774169921875,-0.0447998046875,0.09375,0.07470703125,1.0029296875,-3.25,4.375,-1.4375
0.93,5.0,-26.0,-37.0,-1.0,-4.0,-9.0,1.0,-15.0,0.0330810546875,0.02783203125,0.998046875,-0.044189453125,0.05810546875,0.06201171875,0.994140625,-2.0,3.625,0.8125
0.935,-8.0,1.0,-3.0,-4.0,-2.0,1.0,0.0,-5.0,0.0313720703125,0.01824951171875,0.9981689453125,-0.0472412109375,0.0458984375,-0.07958984375,0.97998046875,-26.0625,-3.375,11.25
0.94,-2.0,2.0,3.0,2.0,2.0,-1.0,3.0,10.0,0.03216552734375,0.01776123046875,0.99761962890625,-0.05767822265625,0.06494140625,0.06787109375,0.99951171875,-8.125,-0.8125,2.3125
0.945,4.0,-11.0,-6.0,3.0,0.0,0.0,0.0,-4.0,0.0343017578125,0.0133056640625,0.9974365234375,-0.06060791015625,0.09228515625,0.0400390625,1.01611328125,2.5,0.0625,0.8125
0.95,-6.0,-11.0,0.0,2.0,2.0,2.0,0.0,-1.0,0.03717041015625,0.00726318359375,0.997314453125,-0.06195068359375,0.1005859375,-0.0009765625,0.99755859375,1.1875,-2.625,1.9375
0.955,0.0,-6.0,-12.0,-3.0,-2.0,-2.0,0.0,0.0,0.04296875,0.0067138671875,0.99688720703125,-0.06488037109375,0.1044921875,0.0009765625,0.986328125,4.375,-6.5,1.6875
0.96,-7.0,9.0,13.0,-2.0,-5.0,-4.0,-2.0,-7.0,0.0535888671875,0.0042724609375,0.9964599609375,-0.06463623046875,0.1201171875,0.017578125,0.9814453125,0.6875,-7.0,-0.75
0.965,-2.0,-3.0,8.0,1.0,-3.0,1.0,0.0,-3.0,0.0594482421875,-0.0025634765625,0.99603271484375,-0.0653076171875,0.1171875,-0.02099609375,1.0029296875,-2.625,-4.4375,1.0
0.97,-3.0,32.0,33.0,6.0,2.0,3.0,-1.0,-2.0,0.0604248046875,-0.0087890625,0.995849609375,-0.067138671875,0.11279296875,-0.03173828125,1.01806640625,-5.75,0.75,2.9375
0.975,-2.0,-32.0,0.0,0.0,-3.0,-4.0,-8.0,-2.0,0.0538330078125,-0.008544921875,0.99615478515625,-0.06805419921875,0.103515625,-0.0263671875,1.0009765625,-1.625,6.8125,0.125
0.98,-11.0,-68.0,-19.0,-5.0,1.0,0.0,-3.0,-7.0,0.04638671875,-0.01104736328125,0.9964599609375,-0.068359375,0.09912109375,-0.0498046875,0.9833984375,-4.625,6.5625,-1.0
0.985,-22.0,-23.0,6.0,2.0,14.0,13.0,10.0,-8.0,0.040283203125,-0.01287841796875,0.9967041015625,-0.06915283203125,0.11279296875,-0.05908203125,0.9921875,5.875,7.625,1.8125
0.99,-2.0,-21.0,6.0,6.0,1.0,6.0,-25.0,2.0,0.0338134765625,-0.00054931640625,0.99700927734375,-0.069091796875,0.083984375,-0.00927734375,0.98583984375,24.75,4.4375,-2.4375
0.995,11.0,11.0,-26.0,8.0,47.0,30.0,17.0,22.0,0.0311279296875,0.00531005859375,0.99725341796875,-0.0667724609375,0.07421875,-0.0087890625,0.9970703125,3.5,2.5625,-3.0
1.0,23.0,112.0,48.0,15.0,-7.0,-4.0,-6.0,3.0,0.02862548828125,0.00469970703125,0.99755859375,-0.0634765625,0.06689453125,0.01025390625,1.0048828125,2.25,3.6875,-2.6875
1.005,-47.0,-76.0,-20.0,-3.0,-7.0,9.0,-11.0,-1.0,0.02679443359375,0.00115966796875,0.99761962890625,-0.06341552734375,0.06103515625,0.0234375,1.03369140625,-2.125,1.9375,-2.625
1.01,-55.0,-59.0,-61.0,-18.0,3.0,-7.0,8.0,-18.0,0.02337646484375,-0.0054931640625,0.997802734375,-0.0614013671875,0.01513671875,-0.01708984375,1.0029296875,-6.875,2.875,-2.0625
1.015,17.0,-18.0,-10.0,-11.0,-7.0,1.0,0.0,1.0,0.02032470703125,-0.00653076171875,0.99798583984375,-0.05975341796875,0.052734375,-0.00732421875,0.9873046875,0.75,2.6875,-3.0625
1.02,10.0,34.0,11.0,7.0,3.0,4.0,-3.0,1.0,0.02105712890625,-0.00885009765625,0.997802734375,-0.06146240234375,0.06005859375,0.01123046875,1.0146484375,1.625,-0.625,0.75
1.025,6.0,5.0,-17.0,-5.0,-1.0,-4.0,-6.0,-5.0,0.02337646484375,-0.0281982421875,0.9969482421875,-0.06842041015625,0.03369140625,-0.0693359375,0.98486328125,-3.0625,-4.6875,0.375
1.03,-3.0,-7.0,1.0,1.0,-3.0,-1.0,-3.0,-3.0,0.0260009765625,-0.03680419921875,0.996337890625,-0.07257080078125,0.0361328125,-0.0673828125,1.0146484375,-3.0625,-3.5625,1.375
1.035,-11.0,-35.0,-12.0,-7.0,-8.0,-6.0,-4.0,-4.0,0.02838134765625,-0.0340576171875,0.9962158203125,-0.074462890625,0.0576171875,-0.05322265625,0.99560546875,2.25,-2.9375,6.625
1.04,4.0,4.0,7.0,6.0,1.0,-4.0,0.0,2.0,0.03369140625,-0.033203125,0.99609375,-0.073974609375,0.0625,-0.0693359375,0.9892578125,1.9375,-5.5625,0.5
1.045,5.0,5.0,-6.0,-3.0,-1.0,0.0,-4.0,-3.0,0.043212890625,-0.033447265625,0.99578857421875,-0.0732421875,0.07958984375,-0.0703125,0.9912109375,3.1875,-7.8125,-1.5
1.05,0.0,22.0,9.0,-3.0,-4.0,-1.0,-6.0,1.0,0.051025390625,-0.03289794921875,0.99560546875,-0.07110595703125,0.11328125,-0.06201171875,0.99853515625,-4.0,-6.3125,-4.375
1.055,0.0,6.0,1.0,1.0,0.0,-3.0,-7.0,-12.0,0.05535888671875,-0.0360107421875,0.99554443359375,-0.067138671875,0.111328125,-0.07421875,0.99560546875,-2.125,-3.0625,-3.375
1.06,-1.0,6.0,3.0,0.0,-2.0,-1.0,-2.0,-11.0,0.058349609375,-0.0390625,0.99542236328125,-0.06402587890625,0.1044921875,-0.0810546875,0.9990234375,-2.4375,-0.625,-1.5625
1.065,5.0,6.0,-1.0,0.0,-1.0,1.0,15.0,7.0,0.05670166015625,-0.03936767578125,0.99566650390625,-0.06182861328125,0.10546875,-0.080078125,0.99267578125,-0.1875,2.6875,-3.625
1.07,-3.0,-26.0,3.0,3.0,1.0,1.0,5.0,-9.0,0.05322265625,-0.0390625,0.99615478515625,-0.05694580078125,0.11279296875,-0.11767578125,1.00244140625,2.625,5.5,-3.875
1.075,-9.0,-3.0,-6.0,-1.0,-1.0,0.0,-6.0,0.0,0.04931640625,-0.036865234375,0.99658203125,-0.05462646484375,0.103515625,-0.08203125,0.9892578125,2.0625,4.6875,-0.625
1.08,-2.0,-60.0,-5.0,-4.0,-8.0,-6.0,0.0,1.0,0.04742431640625,-0.032470703125,0.996826171875,-0.0548095703125,0.1044921875,-0.056640625,1.00048828125,3.3125,3.3125,0.125
1.085,42.0,43.0,46.0,14.0,2.0,1.0,-7.0,-8.0,0.043701171875,-0.02569580078125,0.9971923828125,-0.054443359375,0.09423828125,-0.060546875,0.98828125,5.8125,3.8125,-0.8125
1.09,-65.0,-18.0,-45.0,-11.0,-4.0,-7.0,-9.0,-26.0,0.040283203125,-0.0262451171875,0.9974365234375,-0.05291748046875,0.07958984375,-0.05322265625,0.9921875,-2.6875,1.8125,0.0625
1.095,14.0,-78.0,-49.0,3.0,4.0,5.0,3.0,-11.0,0.03662109375,-0.02862548828125,0.99749755859375,-0.05230712890625,0.0634765625,0.00146484375,0.99853515625,-5.8125,5.0,-4.6875
1.1,-10.0,-20.0,20.0,0.0,2.0,-19.0,-3.0,14.0,0.03277587890625,-0.03253173828125,0.99761962890625,-0.05072021484375,0.056640625,-0.0625,0.9990234375,-6.75,2.3125,-1.0625
1.105,21.0,41.0,39.0,3.0,-3.0,4.0,21.0,2.0,0.03173828125,-0.03448486328125,0.99761962890625,-0.04949951171875,0.0703125,-0.083984375,1.0029296875,-5.8125,-0.125,3.25
1.11,13.0,35.0,3.0,-5.0,-4.0,3.0,11.0,-7.0,0.0316162109375,-0.0465087890625,0.9969482421875,-0.0537109375,0.0234375,-0.18994140625,1.0205078125,-13.6875,-4.5,15.5625
1.115,2.0,48.0,5.0,-5.0,-1.0,-1.0,-6.0,3.0,0.03338623046875,-0.0457763671875,0.99676513671875,-0.05621337890625,0.04638671875,-0.12060546875,0.990234375,-6.75,-1.4375,7.375
1.12,8.0,35.0,12.0,-4.0,-3.0,-1.0,-5.0,-6.0,0.03778076171875,-0.04217529296875,0.9967041015625,-0.057373046875,0.07958984375,-0.0869140625,0.98681640625,1.6875,-4.4375,0.6875
1.125,4.0,-9.0,-6.0,-7.0,-8.0,-5.0,-7.0,6.0,0.0438232421875,-0.04046630859375,0.99652099609375,-0.05804443359375,0.09814453125,-0.107421875,0.994140625,1.3125,-6.4375,-1.5
1.13,1.0,-1.0,-4.0,-4.0,-2.0,-1.0,9.0,0.0,0.04876708984375,-0.041015625,0.996337890625,-0.05670166015625,0.09033203125,-0.103515625,1.0009765625,-0.5625,-3.1875,-1.4375
1.135,-6.0,3.0,-10.0,-4.0,-3.0,-4.0,-5.0,-4.0,0.05413818359375,-0.04180908203125,0.99609375,-0.05560302734375,0.11328125,-0.09521484375,1.00244140625,-0.0625,-5.125,-0.8125
1.14,1.0,5.0,-20.0,-7.0,0.0,2.0,1.0,3.0,0.058837890625,-0.0406494140625,0.99591064453125,-0.054931640625,0.12060546875,-0.08203125,0.98583984375,2.0,-3.25,-1.4375
1.145,-6.0,-11.0,-6.0,1.0,-4.0,-3.0,5.0,-7.0,0.06134033203125,-0.04071044921875,0.99578857421875,-0.0540771484375,0.12255859375,-0.0771484375,0.990234375,-1.4375,-1.0,-0.4375
1.15,-20.0,-4.0,-5.0,-2.0,-4.0,-3.0,-10.0,3.0,0.0618896484375,-0.04150390625,0.9957275390625,-0.0538330078125,0.12548828125,-0.08447265625,0.99462890625,-3.0,0.625,0.0625
1.155,-8.0,0.0,-1.0,4.0,1.0,2.0,4.0,4.0,0.0606689453125,-0.0386962890625,0.9959716796875,-0.0528564453125,0.11572265625,-0.08251953125,0.99365234375,5.0625,2.5,-0.4375
1.16,8.0,97.0,11.0,-4.0,-3.0,-3.0,4.0,-11.0,0.0576171875,-0.0362548828125,0.99627685546875,-0.05181884765625,0.12158203125,-0.06396484375,1.0,6.3125,2.25,-1.8125
1.165,3.0,-10.0,-17.0,-12.0,-3.0,1.0,-21.0,-2.0,0.05548095703125,-0.0313720703125,0.9967041015625,-0.04998779296875,0.10498046875,-0.07080078125,0.9921875,5.4375,3.5625,-2.375
1.17,17.0,50.0,12.0,-3.0,6.0,2.0,6.0,7.0,0.0531005859375,-0.02532958984375,0.99700927734375,-0.04901123046875,0.10986328125,-0.076171875,0.98583984375,8.25,3.0625,-1.0
1.175,-10.0,56.0,-15.0,-11.0,5.0,71.0,-3.0,13.0,0.05096435546875,-0.02520751953125,0.9971923828125,-0.0487060546875,0.1142578125,-0.060546875,0.99755859375,1.1875,1.4375,2.4375
1.18,8.0,-41.0,-26.0,3.0,4.0,-7.0,23.0,-3.0,0.05035400390625,-0.02667236328125,0.9971923828125,-0.0484619140625,0.09375,-0.02197265625,1.00390625,-0.5,1.0,-1.1875
1.185,2.0,-30.0,14.0,8.0,2.0,-6.0,6.0,-7.0,0.0523681640625,-0.029296875,0.99700927734375,-0.04766845703125,0.11962890625,-0.06982421875,0.99072265625,-3.6875,-0.875,0.5
1.19,1.0,67.0,14.0,10.0,5.0,-9.0,35.0,13.0,0.05279541015625,-0.0299072265625,0.99700927734375,-0.04718017578125,0.1025390625,-0.0771484375,0.9921875,-3.875,-0.8125,0.3125
1.195,-5.0,0.0,-10.0,-5.0,-2.0,-3.0,3.0,7.0,0.05230712890625,-0.03009033203125,0.99713134765625,-0.0450439453125,0.1142578125,-0.0244140625,0.98876953125,-0.375,1.125,-2.5625
1.2,4.0,26.0,14.0,8.0,0.0,-4.0,-8.0,-11.0,0.05120849609375,-0.0367431640625,0.996826171875,-0.0477294921875,0.09716796875,-0.06591796875,0.9931640625,2.1875,3.0625,2.9375
1.205,9.0,6.0,-5.0,-6.0,0.0,-1.0,2.0,4.0,0.05279541015625,-0.0364990234375,0.9967041015625,-0.048828125,0.12060546875,-0.04443359375,0.99755859375,-2.875,-2.5625,-5.8125
1.21,-5.0,-4.0,14.0,14.0,2.0,1.0,4.0,-2.0,0.0576171875,-0.04754638671875,0.99591064453125,-0.04974365234375,0.10205078125,-0.08984375,0.9794921875,-5.9375,-7.5,-3.3125
1.215,-5.0,2.0,5.0,1.0,0.0,-2.0,-1.0,0.0,0.06591796875,-0.05706787109375,0.99505615234375,-0.04693603515625,0.11669921875,-0.13232421875,0.98046875,-3.8125,-7.8125,-2.5625
1.22,2.0,2.0,3.0,-1.0,-3.0,0.0,-3.0,0.0,0.07708740234375,-0.05712890625,0.9945068359375,-0.041748046875,0.18603515625,-0.1103515625,0.998046875,-3.9375,-7.625,-6.9375
1.225,0.0,17.0,-11.0,-6.0,-6.0,-2.0,-8.0,-15.0,0.085693359375,-0.05694580078125,0.99395751953125,-0.037353515625,0.1767578125,-0.126953125,0.984375,0.0,-4.3125,0.25
1.23,-2.0,3.0,-7.0,0.0,2.0,0.0,-1.0,0.0,0.0897216796875,-0.054931640625,0.99371337890625,-0.036865234375,0.185546875,-0.1240234375,0.9794921875,-2.8125,-3.25,0.5
1.235,1.0,8.0,-2.0,-6.0,-1.0,-5.0,-15.0,-17.0,0.09149169921875,-0.05364990234375,0.99365234375,-0.03662109375,0.1826171875,-0.1064453125,0.98779296875,0.6875,-0.625,0.125
1.24,-6.0,-27.0,-11.0,0.0,0.0,0.0,15.0,-6.0,0.09161376953125,-0.0523681640625,0.99371337890625,-0.03607177734375,0.177734375,-0.10107421875,0.9873046875,1.5,0.0,-1.4375
1.245,13.0,4.0,12.0,2.0,-2.0,-2.0,-4.0,6.0,0.090087890625,-0.04754638671875,0.994140625,-0.0352783203125,0.18212890625,-0.10546875,0.9951171875,7.25,6.125,-1.1875
1.25,-2.0,36.0,3.0,1.0,1.0,0.0,-6.0,10.0,0.0863037109375,-0.04266357421875,0.9947509765625,-0.033935546875,0.1650390625,-0.08984375,0.97412109375,5.0625,2.125,-1.4375
1.255,3.0,91.0,26.0,4.0,-4.0,-1.0,-6.0,6.0,0.08489990234375,-0.03973388671875,0.99505615234375,-0.03277587890625,0.17333984375,-0.0859375,0.97802734375,5.375,1.5,-1.9375
1.26,21.0,23.0,-31.0,-8.0,3.0,12.0,20.0,32.0,0.0853271484375,-0.0362548828125,0.99517822265625,-0.03155517578125,0.16845703125,-0.076171875,0.9755859375,7.1875,-1.4375,-2.5
1.265,-9.0,37.0,67.0,9.0,-2.0,10.0,9.0,22.0,0.08538818359375,-0.03472900390625,0.99530029296875,-0.02935791015625,0.16796875,-0.06591796875,0.9736328125,7.25,1.5625,-2.5
1.27,-80.0,-98.0,18.0,7.0,3.0,-6.0,3.0,0.0,0.084228515625,-0.0325927734375,0.9954833984375,-0.02911376953125,0.15673828125,-0.00634765625,0.98974609375,-6.0625,0.3125,-3.375
1.275,-25.0,-39.0,-27.0,-11.0,-5.0,-13.0,2.0,9.0,0.0833740234375,-0.039306640625,0.99530029296875,-0.029541015625,0.16162109375,-0.12451171875,0.9716796875,-15.5,-0.4375,7.4375
1.28,31.0,55.0,37.0,7.0,-5.0,-13.0,-15.0,8.0,0.08349609375,-0.04083251953125,0.99517822265625,-0.02984619140625,0.1884765625,-0.1201171875,0.9765625,0.375,0.375,-1.75
1.285,16.0,31.0,-6.0,-3.0,-1.0,-14.0,-6.0,5.0,0.08197021484375,-0.04034423828125,0.995361328125,-0.02874755859375,0.162109375,-0.068359375,0.9931640625,1.9375,1.3125,-0.1875
1.29,8.0,0.0,18.0,3.0,0.0,3.0,-7.0,-4.0,0.079345703125,-0.0516357421875,0.9949951171875,-0.031005859375,0.14453125,-0.2900390625,0.96826171875,-6.6875,0.4375,11.5625
1.295,-25.0,-27.0,-9.0,-5.0,0.0,0.0,4.0,4.0,0.07623291015625,-0.0509033203125,0.9951171875,-0.03497314453125,0.13916015625,-0.14697265625,0.98095703125,-21.4375,1.75,5.8125
1.3,3.0,-19.0,-13.0,-2.0,-2.0,-4.0,-7.0,7.0,0.07611083984375,-0.05096435546875,0.99517822265625,-0.03485107421875,0.15869140625,-0.1435546875,0.99072265625,2.0625,0.0625,4.8125
1.305,4.0,6.0,2.0,-3.0,-6.0,-2.0,-5.0,-4.0,0.075927734375,-0.05108642578125,0.9951171875,-0.03570556640625,0.14306640625,-0.0888671875,0.98779296875,-5.1875,-0.125,-2.3125
1.31,-8.0,-6.0,-15.0,-5.0,-2.0,-1.0,2.0,3.0,0.0799560546875,-0.0513916015625,0.99481201171875,-0.03619384765625,0.16552734375,-0.0927734375,0.98046875,10.25,-2.75,0.125
1.315,4.0,10.0,8.0,2.0,0.0,-1.0,2.0,0.0,0.0850830078125,-0.052490234375,0.99432373046875,-0.03533935546875,0.16357421875,-0.11328125,0.970703125,-5.25,-6.6875,-1.25
1.32,1.0,1.0,13.0,5.0,-1.0,1.0,2.0,-1.0,0.092529296875,-0.04937744140625,0.9937744140625,-0.0360107421875,0.17822265625,-0.0927734375,0.986328125,-1.6875,-5.0625,-0.1875
1.325,2.0,7.0,-7.0,-6.0,-3.0,0.0,0.0,-2.0,0.0953369140625,-0.0489501953125,0.99359130859375,-0.0352783203125,0.185546875,-0.09716796875,0.9814453125,-1.0,-1.3125,0.0625
1.33,0.0,13.0,2.0,-1.0,-2.0,1.0,3.0,-3.0,0.09478759765625,-0.048583984375,0.99359130859375,-0.03619384765625,0.19482421875,-0.10009765625,0.97509765625,0.125,1.625,1.25
1.335,-15.0,-3.0,0.0,-5.0,-4.0,-4.0,3.0,-8.0,0.092529296875,-0.048828125,0.99383544921875,-0.0362548828125,0.1865234375,-0.1044921875,0.98388671875,0.4375,2.0,-0.5
1.34,-8.0,-3.0,1.0,1.0,1.0,1.0,-7.0,-5.0,0.09124755859375,-0.0460205078125,0.994140625,-0.03497314453125,0.1875,-0.1103515625,0.9697265625,7.1875,3.4375,-1.3125
1.345,25.0,11.0,-11.0,-4.0,-7.0,-8.0,-11.0,15.0,0.08856201171875,-0.04168701171875,0.99456787109375,-0.03521728515625,0.16796875,-0.0693359375,0.98193359375,4.0,3.4375,-0.1875
1.35,-6.0,27.0,9.0,0.0,-2.0,2.0,13.0,-8.0,0.087646484375,-0.03790283203125,0.99481201171875,-0.03338623046875,0.17626953125,-0.0625,0.97705078125,5.5,1.125,-3.9375
1.355,26.0,64.0,27.0,5.0,-4.0,6.0,-11.0,-10.0,0.0880126953125,-0.035400390625,0.99493408203125,-0.03216552734375,0.169921875,-0.07666015625,0.95654296875,-1.875,0.8125,1.25
1.36,-71.0,-128.0,-107.0,-34.0,-6.0,18.0,19.0,-76.0,0.08819580078125,-0.0360107421875,0.99493408203125,-0.031494140625,0.16650390625,-0.07470703125,0.9599609375,0.5,-1.0,1.5
1.365,28.0,26.0,28.0,-3.0,-14.0,-14.0,-38.0,6.0,0.088134765625,-0.03759765625,0.994873046875,-0.03106689453125,0.16357421875,-0.0888671875,0.9775390625,-3.9375,-0.875,1.125
1.37,53.0,16.0,15.0,11.0,-2.0,12.0,-10.0,-4.0,0.08856201171875,-0.0399169921875,0.9947509765625,-0.0313720703125,0.1923828125,-0.08349609375,0.986328125,-2.1875,0.75,0.0625
1.375,-6.0,72.0,3.0,5.0,-2.0,-3.0,1.0,12.0,0.08709716796875,-0.04150390625,0.99481201171875,-0.031005859375,0.16796875,-0.06591796875,0.98486328125,0.125,1.5625,-1.375
1.38,-13.0,-2.0,-2.0,-1.0,10.0,38.0,9.0,-9.0,0.08270263671875,-0.0506591796875,0.99468994140625,-0.033203125,0.15673828125,-0.177734375,1.00341796875,-10.125,4.0625,9.25
1.385,6.0,4.0,4.0,0.0,3.0,3.0,1.0,8.0,0.0826416015625,-0.05706787109375,0.9942626953125,-0.03521728515625,0.162109375,-0.16748046875,0.98681640625,-19.4375,2.5,6.0625
1.39,8.0,-11.0,0.0,0.0,-1.0,-1.0,-6.0,-2.0,0.08380126953125,-0.0570068359375,0.994140625,-0.03692626953125,0.1650390625,-0.14013671875,0.97412109375,0.0,-2.3125,6.125
1.395,8.0,48.0,0.0,-1.0,-2.0,-2.0,11.0,5.0,0.08551025390625,-0.0526123046875,0.994140625,-0.03900146484375,0.1845703125,-0.0751953125,0.99658203125,1.0,-1.4375,-4.0625
1.4,4.0,41.0,9.0,1.0,-3.0,-1.0,1.0,-4.0,0.0889892578125,-0.04815673828125,0.9940185546875,-0.04010009765625,0.18896484375,-0.10986328125,0.9912109375,6.6875,-3.5,0.75
1.405,-5.0,-1.0,-2.0,-3.0,-1.0,3.0,-5.0,-3.0,0.09149169921875,-0.0447998046875,0.993896484375,-0.041748046875,0.1875,-0.10400390625,0.9736328125,4.6875,-1.875,1.3125
1.41,10.0,12.0,-1.0,2.0,-2.0,-2.0,-4.0,-1.0,0.09405517578125,-0.04083251953125,0.9937744140625,-0.04278564453125,0.185546875,-0.0869140625,0.96875,0.375,-3.375,0.0625
1.415,-3.0,-6.0,-1.0,-1.0,0.0,2.0,1.0,1.0,0.0980224609375,-0.03802490234375,0.99346923828125,-0.04412841796875,0.18994140625,-0.09912109375,0.97509765625,1.5625,-3.8125,1.0
1.42,0.0,-8.0,-2.0,-2.0,-1.0,-2.0,-1.0,2.0,0.10009765625,-0.0377197265625,0.99322509765625,-0.0452880859375,0.1943359375,-0.08837890625,0.99072265625,-0.625,-0.9375,1.8125
1.425,-15.0,-12.0,-13.0,-9.0,-8.0,-6.0,-2.0,-2.0,0.09967041015625,-0.0357666015625,0.9932861328125,-0.04583740234375,0.20166015625,-0.08984375,0.9775390625,1.0,1.375,0.6875
1.43,-7.0,-12.0,-8.0,-2.0,-6.0,-3.0,6.0,3.0,0.0977783203125,-0.03253173828125,0.99359130859375,-0.04620361328125,0.197265625,-0.0654296875,0.9775390625,1.3125,1.8125,-1.5
1.435,17.0,11.0,3.0,-4.0,-4.0,-2.0,-12.0,-16.0,0.0948486328125,-0.031005859375,0.993896484375,-0.04638671875,0.1875,-0.08544921875,0.98193359375,3.625,4.4375,0.3125
1.44,3.0,3.0,1.0,-2.0,-1.0,2.0,5.0,10.0,0.09039306640625,-0.02777099609375,0.99444580078125,-0.04608154296875,0.17431640625,-0.07177734375,0.970703125,1.6875,2.375,-1.8125
1.445,2.0,8.0,12.0,7.0,3.0,5.0,-2.0,9.0,0.08941650390625,-0.02264404296875,0.99468994140625,-0.04461669921875,0.18115234375,-0.03515625,0.97021484375,7.0,1.6875,-3.875
1.45,-22.0,-60.0,-27.0,-8.0,-4.0,-3.0,1.0,11.0,0.0887451171875,-0.01812744140625,0.99493408203125,-0.0430908203125,0.185546875,-0.0048828125,0.962890625,2.9375,1.1875,-3.0625
1.455,0.0,-61.0,-14.0,5.0,3.0,-17.0,-2.0,-11.0,0.08892822265625,-0.01568603515625,0.99493408203125,-0.04364013671875,0.17724609375,-0.02783203125,0.99169921875,0.0625,0.1875,0.5
1.46,-23.0,-76.0,17.0,2.0,1.0,15.0,11.0,24.0,0.0897216796875,-0.014892578125,0.994873046875,-0.0433349609375,0.17626953125,-0.0537109375,0.9638671875,-1.0625,-1.5,0.4375
1.465,13.0,-42.0,-19.0,-2.0,-1.0,6.0,-3.0,1.0,0.08392333984375,-0.01611328125,0.99530029296875,-0.0455322265625,0.14453125,-0.0625,0.958984375,-4.875,4.25,2.8125
1.47,-23.0,1.0,-11.0,-22.0,-9.0,-8.0,-1.0,-30.0,0.0797119140625,-0.01776123046875,0.99560546875,-0.04547119140625,0.16259765625,-0.005859375,0.9658203125,1.3125,3.875,-0.625
1.475,-18.0,-1.0,60.0,34.0,7.0,1.0,0.0,6.0,0.07940673828125,-0.0260009765625,0.99530029296875,-0.04840087890625,0.18359375,-0.0869140625,0.9599609375,-5.25,-1.375,2.75
1.48,-5.0,-10.0,-12.0,-6.0,-4.0,-2.0,-3.0,-3.0,0.08062744140625,-0.03228759765625,0.994873046875,-0.05120849609375,0.185546875,-0.0810546875,0.97998046875,-15.0,-1.4375,-2.5
1.485,-19.0,-12.0,2.0,-1.0,-2.0,-2.0,5.0,1.0,0.0814208984375,-0.037353515625,0.99462890625,-0.05078125,0.1728515625,-0.1025390625,0.994140625,-6.0,-0.9375,-1.9375
1.49,-4.0,-4.0,4.0,2.0,-2.0,-1.0,-1.0,-7.0,0.0843505859375,-0.03497314453125,0.99456787109375,-0.049560546875,0.1748046875,-0.07275390625,0.986328125,-2.9375,-5.75,-1.9375
1.495,-5.0,12.0,-7.0,0.0,-3.0,-4.0,-9.0,3.0,0.08935546875,-0.03582763671875,0.99407958984375,-0.04937744140625,0.17236328125,-0.10546875,0.97216796875,-2.25,-3.375,-0.4375
1.5,1.0,9.0,5.0,1.0,1.0,1.0,-1.0,3.0,0.09259033203125,-0.0369873046875,0.99383544921875,-0.0479736328125,0.18798828125,-0.09326171875,0.9716796875,-2.3125,-3.5625,-0.8125
1.505,-4.0,-2.0,0.0,0.0,-2.0,-3.0,-6.0,-1.0,0.09527587890625,-0.03741455078125,0.99359130859375,-0.04779052734375,0.18701171875,-0.0888671875,0.9833984375,0.4375,-1.125,0.0625
1.51,0.0,-2.0,-1.0,-4.0,-2.0,-2.0,-3.0,-13.0,0.0950927734375,-0.038330078125,0.9935302734375,-0.04779052734375,0.19189453125,-0.08203125,0.986328125,0.875,0.4375,-0.75
1.515,0.0,-2.0,-4.0,1.0,0.0,3.0,-12.0,-7.0,0.09503173828125,-0.0382080078125,0.9935302734375,-0.0478515625,0.19091796875,-0.076171875,0.97314453125,1.9375,-0.3125,-1.0
1.52,-7.0,-1.0,0.0,4.0,-3.0,0.0,-4.0,-13.0,0.0953369140625,-0.03857421875,0.9935302734375,-0.04779052734375,0.19091796875,-0.07958984375,0.9814453125,-0.875,0.6875,0.3125
1.525,-20.0,-5.0,-10.0,2.0,-1.0,-2.0,-3.0,-4.0,0.09466552734375,-0.03887939453125,0.99365234375,-0.04669189453125,0.19140625,-0.0966796875,0.9833984375,0.3125,-0.125,-3.5
1.53,-3.0,-28.0,-7.0,0.0,1.0,-1.0,-5.0,-21.0,0.093017578125,-0.03662109375,0.993896484375,-0.045654296875,0.19873046875,-0.0673828125,0.98388671875,-3.125,2.0625,-2.1875
1.535,-21.0,-7.0,6.0,-1.0,-2.0,-1.0,13.0,-2.0,0.08953857421875,-0.035400390625,0.99432373046875,-0.04510498046875,0.1767578125,-0.1005859375,0.9765625,0.875,3.0,-0.4375
1.54,-5.0,-5.0,-5.0,0.0,3.0,-4.0,-21.0,-21.0,0.08758544921875,-0.03192138671875,0.99462890625,-0.04364013671875,0.1796875,-0.10302734375,0.97802734375,2.0625,1.0,0.25
1.545,-1.0,-48.0,-44.0,-12.0,-6.0,20.0,16.0,11.0,0.08612060546875,-0.029296875,0.9949951171875,-0.041259765625,0.1630859375,-0.06884765625,0.9912109375,0.4375,0.6875,-1.0
1.55,-13.0,45.0,15.0,6.0,9.0,-12.0,12.0,33.0,0.08612060546875,-0.02862548828125,0.99505615234375,-0.03973388671875,0.15771484375,-0.0830078125,0.97314453125,-4.4375,1.3125,0.4375
1.555,0.0,-43.0,-18.0,-4.0,15.0,12.0,31.0,5.0,0.08489990234375,-0.03131103515625,0.9951171875,-0.03857421875,0.154296875,-0.09130859375,0.9794921875,-11.6875,3.3125,2.375
1.56,6.0,82.0,76.0,13.0,2.0,27.0,-2.0,-5.0,0.0810546875,-0.03387451171875,0.995361328125,-0.03887939453125,0.154296875,-0.06640625,0.99853515625,0.3125,2.8125,2.1875
1.565,-40.0,-46.0,-16.0,0.0,-6.0,-9.0,-5.0,-22.0,0.0791015625,-0.03448486328125,0.99554443359375,-0.037353515625,0.15478515625,-0.041015625,0.99755859375,-3.4375,1.0625,-0.6875
1.57,3.0,46.0,4.0,-6.0,-4.0,-9.0,-1.0,-12.0,0.07781982421875,-0.03668212890625,0.99554443359375,-0.0382080078125,0.15771484375,-0.09375,0.9716796875,-5.25,0.3125,4.375
1.575,0.0,-22.0,-8.0,-2.0,-3.0,-2.0,0.0,-6.0,0.0775146484375,-0.041748046875,0.99517822265625,-0.042236328125,0.20849609375,-0.111328125,1.01318359375,20.4375,2.375,4.5
1.58,7.0,33.0,-1.0,0.0,4.0,1.0,1.0,4.0,0.0743408203125,-0.0421142578125,0.9954833984375,-0.040771484375,0.13818359375,-0.04931640625,0.9765625,7.375,-1.375,-2.375
1.585,-2.0,-7.0,-7.0,-9.0,-1.0,-1.0,1.0,-1.0,0.0770263671875,-0.04034423828125,0.99530029296875,-0.04180908203125,0.14599609375,-0.0693359375,0.96337890625,4.3125,-1.375,-0.125
1.59,2.0,2.0,0.0,0.0,-5.0,-3.0,-7.0,-4.0,0.0802001953125,-0.04058837890625,0.99505615234375,-0.0419921875,0.15087890625,-0.06005859375,0.98046875,-0.0625,-3.9375,-1.5
1.595,-3.0,2.0,5.0,0.0,0.0,-4.0,2.0,4.0,0.08465576171875,-0.03985595703125,0.9947509765625,-0.0413818359375,0.16455078125,-0.0654296875,0.97998046875,0.625,-4.875,-1.125
1.6,-4.0,-2.0,4.0,3.0,-2.0,-4.0,11.0,10.0,0.089599609375,-0.04052734375,0.9942626953125,-0.041748046875,0.1865234375,-0.091796875,0.99853515625,-5.875,-3.0,0.75
1.605,8.0,7.0,6.0,9.0,5.0,5.0,8.0,-1.0,0.09124755859375,-0.0401611328125,0.99407958984375,-0.04193115234375,0.1845703125,-0.09326171875,0.9794921875,-3.1875,-1.0625,0.625
1.61,0.0,-4.0,-1.0,-1.0,1.0,4.0,9.0,4.0,0.09271240234375,-0.039794921875,0.9940185546875,-0.0416259765625,0.18408203125,-0.09716796875,0.98193359375,-0.375,-0.75,-0.0625
1.615,4.0,4.0,-7.0,0.0,2.0,6.0,4.0,-7.0,0.092041015625,-0.03826904296875,0.994140625,-0.04144287109375,0.181640625,-0.07080078125,0.98876953125,-0.1875,2.25,0.0625
1.62,-28.0,-18.0,-3.0,-3.0,0.0,2.0,-10.0,-19.0,0.08868408203125,-0.037353515625,0.9945068359375,-0.04119873046875,0.1796875,-0.07275390625,0.98046875,3.625,4.0625,-1.0
1.625,-6.0,-79.0,-24.0,-6.0,-4.0,-4.0,-6.0,-6.0,0.08489990234375,-0.03790283203125,0.99481201171875,-0.0406494140625,0.17822265625,-0.1005859375,0.98779296875,5.5,4.4375,-0.4375
1.63,9.0,-33.0,-2.0,-5.0,-5.0,-5.0,-2.0,8.0,0.0828857421875,-0.03472900390625,0.9951171875,-0.04058837890625,0.1728515625,-0.060546875,0.97314453125,5.5625,1.875,-1.9375
1.635,-42.0,-90.0,-18.0,-5.0,-7.0,-3.0,14.0,11.0,0.08233642578125,-0.0328369140625,0.9952392578125,-0.0391845703125,0.169921875,-0.08203125,0.97314453125,2.625,-0.375,-2.625
1.64,24.0,-18.0,0.0,-4.0,1.0,-1.0,16.0,16.0,0.08258056640625,-0.0308837890625,0.995361328125,-0.03839111328125,0.17431640625,-0.06591796875,0.98046875,3.625,1.0,-0.625
1.645,-33.0,-8.0,-20.0,-6.0,-1.0,-1.0,6.0,-3.0,0.08245849609375,-0.026611328125,0.99554443359375,-0.0367431640625,0.15087890625,-0.03125,0.9697265625,0.5625,0.375,-3.8125
1.65,-24.0,-60.0,-24.0,-16.0,-1.0,16.0,-17.0,-7.0,0.08221435546875,-0.02679443359375,0.99554443359375,-0.036376953125,0.181640625,-0.02978515625,0.9755859375,0.625,3.6875,0.0
1.655,39.0,116.0,80.0,7.0,-8.0,-10.0,16.0,15.0,0.080322265625,-0.03094482421875,0.99566650390625,-0.03466796875,0.13525390625,-0.068359375,0.99462890625,-5.1875,1.0625,-2.4375
1.66,-9.0,-26.0,5.0,1.0,9.0,51.0,22.0,8.0,0.08154296875,-0.03350830078125,0.99554443359375,-0.03277587890625,0.14453125,-0.0986328125,0.96337890625,-10.375,-1.4375,2.4375
1.665,2.0,28.0,17.0,8.0,2.0,-3.0,-1.0,5.0,0.08123779296875,-0.03424072265625,0.99554443359375,-0.03240966796875,0.130859375,-0.09228515625,0.98095703125,-4.25,-0.6875,-0.0625
1.67,-14.0,-7.0,-3.0,-6.0,-3.0,-6.0,-5.0,-5.0,0.0806884765625,-0.03985595703125,0.99542236328125,-0.03033447265625,0.18310546875,-0.1123046875,0.98291015625,-12.6875,1.1875,0.1875
1.675,-15.0,-8.0,-18.0,-6.0,4.0,7.0,4.0,3.0,0.0804443359375,-0.037109375,0.99542236328125,-0.03558349609375,0.17236328125,0.00732421875,0.97412109375,12.1875,3.625,-3.0625
1.68,10.0,15.0,11.0,5.0,0.0,-1.0,-7.0,-8.0,0.08135986328125,-0.0426025390625,0.99505615234375,-0.036376953125,0.177734375,-0.09765625,0.9912109375,7.0625,-0.375,0.9375
1.685,5.0,-10.0,-6.0,2.0,3.0,1.0,1.0,2.0,0.08282470703125,-0.04315185546875,0.99493408203125,-0.0364990234375,0.17236328125,-0.10400390625,0.978515625,2.5,-2.125,-1.5
1.69,2.0,11.0,-8.0,0.0,4.0,2.0,2.0,4.0,0.086669921875,-0.04083251953125,0.99468994140625,-0.03662109375,0.17529296875,-0.0966796875,0.98681640625,-3.8125,-4.0,0.1875
1.695,0.0,8.0,3.0,-1.0,0.0,-1.0,-2.0,0.0,0.09100341796875,-0.041015625,0.9942626953125,-0.0377197265625,0.185546875,-0.0908203125,0.97314453125,-0.375,-3.6875,1.6875
1.7,-7.0,3.0,2.0,1.0,-5.0,-5.0,-3.0,-4.0,0.0965576171875,-0.0418701171875,0.99359130859375,-0.04010009765625,0.18603515625,-0.09130859375,0.99072265625,-2.5625,-4.0,2.0
1.705,2.0,23.0,6.0,2.0,-2.0,-3.0,3.0,3.0,0.09765625,-0.040283203125,0.9935302734375,-0.040283203125,0.18994140625,-0.087890625,0.99951171875,-1.25,-0.5,-0.75
1.71,-8.0,-10.0,-13.0,-4.0,1.0,1.0,0.0,-10.0,0.09674072265625,-0.03997802734375,0.99371337890625,-0.039306640625,0.19482421875,-0.07568359375,0.97265625,1.375,1.375,-2.0
1.715,-12.0,17.0,8.0,1.0,0.0,2.0,0.0,5.0,0.09393310546875,-0.03948974609375,0.9940185546875,-0.03857421875,0.18896484375,-0.119140625,0.97509765625,-0.375,2.75,1.5
1.72,17.0,24.0,20.0,2.0,-1.0,-1.0,-18.0,2.0,0.091064453125,-0.03753662109375,0.99444580078125,-0.03704833984375,0.18603515625,-0.10400390625,0.9892578125,1.8125,2.25,-0.1875
1.725,-2.0,17.0,15.0,4.0,-2.0,-1.0,-2.0,7.0,0.089599609375,-0.033935546875,0.9947509765625,-0.03570556640625,0.16943359375,-0.0625,0.98046875,0.3125,1.375,-2.6875
1.73,-1.0,0.0,1.0,4.0,-1.0,-6.0,-16.0,-8.0,0.08843994140625,-0.03173828125,0.99493408203125,-0.03466796875,0.17431640625,-0.0703125,0.98779296875,5.625,0.375,-2.0
1.735,8.0,-23.0,-20.0,-17.0,-11.0,-7.0,-13.0,2.0,0.087158203125,-0.02874755859375,0.9952392578125,-0.03253173828125,0.169921875,-0.03515625,0.96728515625,0.625,0.3125,-2.3125
1.74,71.0,28.0,21.0,0.0,4.0,30.0,10.0,-30.0,0.08660888671875,-0.0296630859375,0.9952392578125,-0.03204345703125,0.181640625,-0.02685546875,0.98486328125,-1.25,1.125,-1.6875
1.745,16.0,104.0,-10.0,-13.0,-4.0,16.0,14.0,-1.0,0.08447265625,-0.0330810546875,0.995361328125,-0.0301513671875,0.158203125,-0.06884765625,0.97216796875,-3.875,2.3125,-3.5625
1.75,9.0,-46.0,-19.0,-4.0,11.0,32.0,35.0,11.0,0.0836181640625,-0.037353515625,0.99530029296875,-0.03118896484375,0.18994140625,-0.10888671875,0.97216796875,-7.6875,2.875,6.6875
1.755,17.0,15.0,10.0,2.0,-1.0,-1.0,-4.0,-7.0,0.080322265625,-0.041015625,0.99542236328125,-0.02972412109375,0.16552734375,-0.0517578125,0.9990234375,1.75,3.0625,-1.4375
1.76,8.0,37.0,27.0,-3.0,-7.0,-2.0,-3.0,-1.0,0.07769775390625,-0.0496826171875,0.9952392578125,-0.03094482421875,0.16650390625,-0.10888671875,1.009765625,-12.3125,2.5,1.5625
1.765,-2.0,21.0,4.0,-2.0,-2.0,-4.0,-3.0,0.0,0.07672119140625,-0.05267333984375,0.99505615234375,-0.0338134765625,0.146484375,-0.11767578125,1.00390625,-7.1875,0.6875,2.8125
1.77,-9.0,-3.0,1.0,0.0,-3.0,0.0,-1.0,-4.0,0.0770263671875,-0.0545654296875,0.99493408203125,-0.03302001953125,0.1796875,-0.14111328125,1.00341796875,-1.75,-0.75,-1.8125
1.775,-6.0,11.0,10.0,1.0,-3.0,1.0,-3.0,-8.0,0.07720947265625,-0.04962158203125,0.9952392578125,-0.03253173828125,0.14697265625,-0.1220703125,0.970703125,5.375,-0.3125,3.75
1.78,-1.0,-4.0,7.0,2.0,-2.0,-2.0,-2.0,-1.0,0.08062744140625,-0.0435791015625,0.9951171875,-0.0362548828125,0.1513671875,-0.08447265625,0.9716796875,4.25,-3.8125,4.5
1.785,2.0,20.0,4.0,-1.0,-3.0,-4.0,0.0,-4.0,0.087158203125,-0.03851318359375,0.99462890625,-0.04010009765625,0.181640625,-0.07568359375,0.96044921875,4.375,-8.375,3.25
1.79,0.0,9.0,1.0,-4.0,-1.0,0.0,1.0,-3.0,0.09619140625,-0.03533935546875,0.99383544921875,-0.041259765625,0.20703125,-0.0625,0.9755859375,1.125,-7.5,-0.25
1.795,-4.0,0.0,5.0,1.0,1.0,2.0,1.0,0.0,0.10137939453125,-0.031494140625,0.99346923828125,-0.04071044921875,0.18505859375,-0.03515625,0.9814453125,3.75,-3.0,-1.9375
1.8,5.0,2.0,-6.0,-4.0,2.0,-3.0,-1.0,-2.0,0.1024169921875,-0.029541015625,0.99346923828125,-0.03997802734375,0.19287109375,-0.05517578125,0.97705078125,1.375,0.125,-0.9375
1.805,3.0,1.0,0.0,0.0,1.0,-1.0,-2.0,6.0,0.10162353515625,-0.02789306640625,0.99359130859375,-0.039794921875,0.197265625,-0.052734375,0.9736328125,2.25,0.875,-1.3125
1.81,-5.0,9.0,6.0,-1.0,-2.0,2.0,-5.0,-6.0,0.09710693359375,-0.02813720703125,0.9940185546875,-0.04058837890625,0.2001953125,-0.06201171875,0.97216796875,-0.75,4.0,1.25
1.815,3.0,-1.0,5.0,-2.0,0.0,-2.0,-19.0,3.0,0.09332275390625,-0.02886962890625,0.994384765625,-0.04046630859375,0.201171875,-0.07373046875,0.9873046875,0.75,5.1875,-0.4375
1.82,27.0,3.0,2.0,2.0,0.0,0.0,2.0,3.0,0.091064453125,-0.0286865234375,0.99456787109375,-0.04095458984375,0.20068359375,-0.09814453125,0.9892578125,6.625,2.5625,0.9375
1.825,41.0,28.0,1.0,-5.0,-5.0,-6.0,-9.0,8.0,0.09088134765625,-0.025146484375,0.99462890625,-0.04132080078125,0.203125,-0.05419921875,0.97705078125,7.3125,-1.0,0.0
1.83,19.0,14.0,8.0,2.0,12.0,6.0,40.0,10.0,0.08978271484375,-0.02154541015625,0.99481201171875,-0.04132080078125,0.20556640625,-0.0576171875,0.9794921875,5.6875,1.375,-2.125
1.835,47.0,126.0,63.0,10.0,5.0,18.0,26.0,33.0,0.0869140625,-0.0181884765625,0.9952392578125,-0.0386962890625,0.1767578125,-0.02392578125,0.974609375,0.625,2.75,-5.3125
1.84,12.0,54.0,27.0,-4.0,-3.0,1.0,-19.0,13.0,0.08795166015625,-0.01849365234375,0.99530029296875,-0.03564453125,0.17626953125,-0.03759765625,0.97265625,-0.875,-2.5,-4.5625
1.845,-13.0,16.0,-39.0,-18.0,-4.0,-17.0,38.0,4.0,0.090087890625,-0.01922607421875,0.99517822265625,-0.0335693359375,0.185546875,-0.00244140625,0.98828125,-3.125,0.6875,-1.125
1.85,-14.0,-68.0,-29.0,-15.0,-7.0,-25.0,-5.0,-10.0,0.087890625,-0.0224609375,0.995361328125,-0.03131103515625,0.19287109375,-0.0361328125,0.98095703125,-1.9375,5.8125,-1.75
1.855,-5.0,14.0,31.0,12.0,3.0,4.0,-7.0,-8.0,0.08447265625,-0.02532958984375,0.99566650390625,-0.0286865234375,0.1923828125,0.02392578125,0.9755859375,-8.75,5.4375,-4.0625
1.86,-11.0,-4.0,-2.0,-4.0,-2.0,2.0,0.0,0.0,0.07952880859375,-0.0379638671875,0.99566650390625,-0.029296875,0.1650390625,-0.1474609375,0.99560546875,3.1875,0.3125,1.125
1.865,-8.0,1.0,-17.0,-6.0,-4.0,-4.0,-1.0,-2.0,0.0775146484375,-0.034423828125,0.99578857421875,-0.03466796875,0.12939453125,-0.10400390625,0.97314453125,-5.5,-1.1875,1.5
1.87,2.0,2.0,10.0,2.0,-2.0,-3.0,0.0,3.0,0.078857421875,-0.0350341796875,0.99566650390625,-0.03302001953125,0.13525390625,-0.09521484375,0.99072265625,-11.625,-3.6875,0.0
1.875,-5.0,-14.0,-2.0,-1.0,-5.0,-8.0,-3.0,-5.0,0.0828857421875,-0.0367431640625,0.995361328125,-0.03125,0.15576171875,-0.07861328125,0.9853515625,-8.625,-4.5,-0.1875
1.88,2.0,3.0,-1.0,-3.0,-3.0,-3.0,0.0,-3.0,0.08477783203125,-0.0408935546875,0.9951171875,-0.0277099609375,0.16796875,-0.08544921875,0.9921875,-6.9375,-2.6875,-1.875
1.885,7.0,6.0,3.0,3.0,0.0,-1.0,4.0,6.0,0.08453369140625,-0.04351806640625,0.9951171875,-0.0250244140625,0.16357421875,-0.091796875,0.984375,-2.75,1.0,-2.625
1.89,5.0,26.0,11.0,-3.0,-4.0,-4.0,-3.0,0.0,0.0826416015625,-0.04833984375,0.99505615234375,-0.0244140625,0.16162109375,-0.0908203125,0.9794921875,-1.5625,2.3125,0.625
1.895,-9.0,-15.0,-7.0,-5.0,-2.0,-3.0,-9.0,-4.0,0.08135986328125,-0.04974365234375,0.9951171875,-0.025390625,0.1708984375,-0.1005859375,0.9716796875,1.8125,0.875,0.25
1.9,-20.0,-85.0,-5.0,6.0,4.0,3.0,1.0,5.0,0.08013916015625,-0.050048828125,0.99517822265625,-0.02545166015625,0.150390625,-0.11181640625,0.9736328125,3.125,0.4375,-0.4375
1.905,4.0,-7.0,-1.0,4.0,-1.0,-1.0,-9.0,7.0,0.08050537109375,-0.044189453125,0.99542236328125,-0.0247802734375,0.150390625,-0.08642578125,0.98681640625,1.0,-1.75,-1.125
1.91,10.0,31.0,-2.0,-9.0,-8.0,-5.0,-1.0,-9.0,0.08148193359375,-0.0377197265625,0.99560546875,-0.0250244140625,0.17626953125,-0.08154296875,0.97705078125,8.6875,0.5625,1.5625
1.915,68.0,69.0,6.0,-2.0,-1.0,-4.0,14.0,30.0,0.0831298828125,-0.0325927734375,0.99560546875,-0.0267333984375,0.1806640625,-0.06298828125,0.9833984375,5.0,-0.9375,0.25
1.92,20.0,74.0,58.0,16.0,7.0,3.0,-17.0,2.0,0.08441162109375,-0.03021240234375,0.99554443359375,-0.02825927734375,0.171875,-0.0654296875,0.97021484375,3.5625,-1.1875,2.0625
1.925,-9.0,31.0,43.0,11.0,-4.0,-4.0,-22.0,-20.0,0.0855712890625,-0.029296875,0.9954833984375,-0.0283203125,0.1806640625,-0.0595703125,0.96875,2.0,-0.5625,0.1875
1.93,-50.0,-26.0,-28.0,-16.0,-5.0,4.0,0.0,25.0,0.0865478515625,-0.030029296875,0.995361328125,-0.02734375,0.17822265625,-0.056640625,0.98583984375,-0.375,-1.0,-3.6875
1.935,-8.0,29.0,33.0,9.0,2.0,7.0,15.0,10.0,0.08685302734375,-0.03118896484375,0.995361328125,-0.02679443359375,0.1689453125,-0.056640625,0.9658203125,-2.875,-0.0625,0.4375
1.94,14.0,-3.0,-5.0,0.0,-6.0,-5.0,-7.0,-10.0,0.08587646484375,-0.04425048828125,0.994873046875,-0.02850341796875,0.1904296875,-0.1767578125,0.98876953125,13.4375,-2.625,1.3125
1.945,-23.0,7.0,-4.0,-6.0,-1.0,0.0,1.0,-7.0,0.0850830078125,-0.04400634765625,0.99493408203125,-0.02923583984375,0.19482421875,-0.10888671875,1.0009765625,3.0,-0.75,-1.875
1.95,-12.0,-7.0,-9.0,-2.0,-4.0,-6.0,1.0,3.0,0.0855712890625,-0.04266357421875,0.994873046875,-0.032470703125,0.177734375,-0.1142578125,0.96435546875,4.375,-2.0,5.875
1.955,-2.0,-49.0,-14.0,-5.0,-3.0,-2.0,4.0,-4.0,0.0892333984375,-0.04254150390625,0.9945068359375,-0.03387451171875,0.181640625,-0.09130859375,0.98095703125,4.25,-5.3125,-0.125
1.96,5.0,-8.0,4.0,0.0,-2.0,-3.0,-1.0,-4.0,0.09674072265625,-0.04071044921875,0.99383544921875,-0.0355224609375,0.19970703125,-0.10595703125,0.9619140625,10.375,-5.6875,0.125
1.965,-7.0,-12.0,-2.0,2.0,1.0,3.0,0.0,-8.0,0.10369873046875,-0.03851318359375,0.9931640625,-0.037109375,0.20849609375,-0.087890625,0.97509765625,2.375,-5.8125,2.1875
1.97,6.0,4.0,1.0,-1.0,0.0,-2.0,-1.0,5.0,0.1063232421875,-0.03656005859375,0.99285888671875,-0.0384521484375,0.2138671875,-0.072265625,0.97607421875,0.0625,-0.6875,0.75
1.975,-5.0,2.0,2.0,0.0,-3.0,-1.0,9.0,-4.0,0.10595703125,-0.035888671875,0.99298095703125,-0.03814697265625,0.21435546875,-0.07666015625,0.99169921875,1.4375,1.1875,-1.125
1.98,-1.0,-28.0,-7.0,-4.0,0.0,2.0,-8.0,-13.0,0.10577392578125,-0.030517578125,0.9931640625,-0.038330078125,0.2041015625,-0.06640625,0.96484375,-0.3125,0.8125,-0.8125
1.985,28.0,11.0,-11.0,-1.0,0.0,-2.0,6.0,15.0,0.10443115234375,-0.02716064453125,0.993408203125,-0.0374755859375,0.2109375,-0.05810546875,0.9716796875,3.3125,2.0,0.1875
1.99,12.0,9.0,19.0,3.0,1.0,3.0,2.0,-1.0,0.10296630859375,-0.02490234375,0.99365234375,-0.03668212890625,0.20263671875,-0.06494140625,0.9521484375,1.5625,2.1875,0.3125
1.995,1.0,0.0,-21.0,-14.0,-4.0,-6.0,-3.0,8.0,0.1024169921875,-0.01806640625,0.993896484375,-0.03515625,0.1982421875,-0.01123046875,0.94873046875,-0.5,-1.1875,-0.8125
2.0,28.0,120.0,61.0,14.0,-2.0,-17.0,5.0,34.0,0.1025390625,-0.01739501953125,0.99395751953125,-0.03485107421875,0.21875,-0.0380859375,0.97412109375,-5.8125,1.25,-1.9375
2.005,-4.0,-78.0,-57.0,-10.0,18.0,19.0,61.0,44.0,0.10162353515625,-0.02093505859375,0.9940185546875,-0.033447265625,0.21044921875,-0.080078125,0.97900390625,-4.5625,1.3125,-0.875
2.01,-106.0,-74.0,-67.0,-19.0,-5.0,0.0,-11.0,-19.0,0.10040283203125,-0.02203369140625,0.994140625,-0.03271484375,0.20849609375,-0.05322265625,0.9833984375,5.375,-0.1875,-4.25
2.015,-4.0,-8.0,-15.0,-29.0,-9.0,-3.0,4.0,0.0,0.09954833984375,-0.0233154296875,0.99420166015625,-0.03277587890625,0.20947265625,-0.06689453125,0.9638671875,-0.4375,0.875,0.8125
2.02,12.0,5.0,4.0,-3.0,-3.0,4.0,3.0,7.0,0.09710693359375,-0.0341796875,0.9940185546875,-0.0361328125,0.224609375,-0.1875,0.98486328125,18.5,-0.3125,1.1875
2.025,10.0,59.0,8.0,1.0,5.0,1.0,0.0,1.0,0.09613037109375,-0.03570556640625,0.99383544921875,-0.04107666015625,0.2080078125,-0.11669921875,0.9951171875,4.3125,1.625,5.1875
2.03,-5.0,6.0,3.0,-1.0,-1.0,2.0,1.0,1.0,0.0958251953125,-0.0355224609375,0.99371337890625,-0.04449462890625,0.19775390625,-0.099609375,0.97607421875,-2.0625,-1.625,3.4375
2.035,1.0,3.0,1.0,-1.0,-5.0,-2.0,-2.0,-1.0,0.10076904296875,-0.0316162109375,0.99334716796875,-0.0455322265625,0.1982421875,-0.07177734375,0.97119140625,-0.4375,-5.625,1.5
2.04,4.0,7.0,8.0,0.0,-3.0,-1.0,-7.0,-4.0,0.10601806640625,-0.0318603515625,0.9927978515625,-0.0457763671875,0.20947265625,-0.07373046875,0.97998046875,0.125,-3.5,0.0
2.045,5.0,28.0,5.0,-2.0,-7.0,-8.0,-13.0,1.0,0.108154296875,-0.0321044921875,0.99249267578125,-0.04595947265625,0.21240234375,-0.080078125,0.99267578125,-0.5625,-1.125,0.5
2.05,2.0,4.0,5.0,0.0,-3.0,-4.0,-2.0,5.0,0.107666015625,-0.032470703125,0.9925537109375,-0.04644775390625,0.2177734375,-0.080078125,0.9765625,-3.625,2.5,1.0625
2.055,-16.0,4.0,2.0,-4.0,-7.0,-7.0,-22.0,-22.0,0.1053466796875,-0.03179931640625,0.99285888671875,-0.04547119140625,0.197265625,-0.09765625,0.966796875,-4.0625,1.125,0.5
2.06,27.0,9.0,8.0,3.0,-4.0,1.0,19.0,14.0,0.10107421875,-0.0274658203125,0.99346923828125,-0.04412841796875,0.20263671875,-0.09765625,0.98291015625,-0.9375,3.6875,0.75
2.065,10.0,-5.0,-12.0,-8.0,0.0,-1.0,2.0,-6.0,0.09759521484375,-0.0196533203125,0.99407958984375,-0.04339599609375,0.2138671875,-0.06103515625,0.990234375,7.3125,4.25,-0.75
2.07,-52.0,-49.0,30.0,7.0,-1.0,3.0,-24.0,7.0,0.094482421875,-0.016357421875,0.99444580078125,-0.04248046875,0.1806640625,-0.0380859375,0.96240234375,-0.9375,2.125,-1.5625
2.075,9.0,-56.0,-52.0,-5.0,2.0,16.0,-4.0,1.0,0.09368896484375,-0.01287841796875,0.99462890625,-0.04180908203125,0.19287109375,-0.037109375,0.96923828125,-1.125,0.9375,1.1875
2.08,58.0,41.0,19.0,1.0,0.0,-26.0,0.0,35.0,0.09332275390625,-0.0126953125,0.99456787109375,-0.04339599609375,0.18408203125,-0.03125,0.97314453125,-4.125,1.1875,3.3125
2.085,32.0,37.0,-17.0,-10.0,-6.0,-7.0,-21.0,3.0,0.09075927734375,-0.0152587890625,0.99481201171875,-0.04278564453125,0.14990234375,-0.046875,0.96728515625,-1.4375,2.75,-2.125
2.09,-8.0,49.0,8.0,-2.0,0.0,-5.0,-2.0,-2.0,0.0897216796875,-0.017578125,0.994873046875,-0.042724609375,0.1865234375,-0.0771484375,0.97509765625,-5.5625,-0.375,1.9375
2.095,-2.0,-6.0,-13.0,-4.0,-2.0,-7.0,-5.0,-12.0,0.089599609375,-0.02288818359375,0.99481201171875,-0.0418701171875,0.18505859375,-0.1044921875,1.0029296875,-11.5625,-0.625,4.4375
2.1,4.0,-41.0,-12.0,-2.0,0.0,-2.0,-5.0,4.0,0.0916748046875,-0.0308837890625,0.99407958984375,-0.0487060546875,0.18701171875,-0.10400390625,0.9912109375,-24.25,-3.3125,9.25
2.105,2.0,10.0,1.0,-3.0,-2.0,-2.0,9.0,-1.0,0.0948486328125,-0.03106689453125,0.99359130859375,-0.05255126953125,0.18505859375,-0.052734375,0.98486328125,-11.875,-1.3125,3.75
2.11,-1.0,-12.0,-18.0,-6.0,-2.0,-1.0,15.0,2.0,0.0994873046875,-0.03472900390625,0.992919921875,-0.0543212890625,0.2060546875,-0.09619140625,0.97509765625,-3.875,-5.4375,1.625
2.115,5.0,13.0,-3.0,-2.0,-3.0,-4.0,-1.0,11.0,0.1038818359375,-0.033935546875,0.992431640625,-0.0555419921875,0.208984375,-0.083984375,0.97216796875,-0.5625,-3.4375,0.125
2.12,-12.0,-26.0,-9.0,1.0,-1.0,0.0,13.0,2.0,0.10736083984375,-0.0328369140625,0.9920654296875,-0.05633544921875,0.2197265625,-0.07421875,0.94921875,2.1875,-0.8125,1.5625
2.125,0.0,-5.0,6.0,2.0,4.0,3.0,-1.0,8.0,0.10882568359375,-0.03387451171875,0.99176025390625,-0.05767822265625,0.2099609375,-0.060546875,0.96875,-0.6875,-1.5,1.0625
2.13,1.0,22.0,7.0,-1.0,-8.0,-7.0,3.0,0.0,0.10943603515625,-0.03265380859375,0.99163818359375,-0.0594482421875,0.2099609375,-0.06591796875,0.990234375,1.125,-0.5625,0.5625
2.135,6.0,9.0,-3.0,-5.0,-3.0,-4.0,1.0,11.0,0.108154296875,-0.0322265625,0.99176025390625,-0.0599365234375,0.21484375,-0.08984375,0.9814453125,-1.1875,1.625,1.0
2.14,-4.0,-3.0,9.0,4.0,1.0,-1.0,-5.0,3.0,0.1063232421875,-0.03076171875,0.9920654296875,-0.05950927734375,0.21923828125,-0.07470703125,0.95703125,-0.3125,2.125,-0.6875
2.145,4.0,10.0,7.0,-4.0,-3.0,-2.0,14.0,14.0,0.1036376953125,-0.02716064453125,0.99237060546875,-0.06005859375,0.21240234375,-0.06689453125,0.98291015625,4.5,3.0625,-0.9375
2.15,4.0,61.0,16.0,5.0,0.0,0.0,9.0,12.0,0.099853515625,-0.0234375,0.992919921875,-0.059814453125,0.201171875,-0.05078125,0.97705078125,5.1875,4.0625,0.9375
2.155,-19.0,32.0,9.0,-4.0,-1.0,-2.0,-1.0,1.0,0.09674072265625,-0.01708984375,0.99334716796875,-0.05938720703125,0.18701171875,0.00634765625,0.9755859375,7.0625,-1.25,2.0
2.16,-19.0,-72.0,0.0,7.0,0.0,19.0,12.0,13.0,0.09619140625,-0.01239013671875,0.99346923828125,-0.059326171875,0.1845703125,0.0107421875,0.9599609375,6.5,2.75,-2.3125
2.165,19.0,-35.0,-65.0,-15.0,1.0,20.0,13.0,18.0,0.09466552734375,-0.0089111328125,0.99371337890625,-0.05816650390625,0.19970703125,-0.0380859375,0.99169921875,-1.375,2.5625,-2.6875
2.17,3.0,-36.0,-48.0,-11.0,4.0,-8.0,3.0,17.0,0.0924072265625,-0.0118408203125,0.99383544921875,-0.06005859375,0.16259765625,-0.095703125,0.95068359375,-6.6875,1.0,6.0625
2.175,-1.0,-5.0,-18.0,-7.0,-1.0,-6.0,0.0,12.0,0.09222412109375,-0.012939453125,0.9937744140625,-0.06036376953125,0.1884765625,-0.00732421875,1.0009765625,0.0,0.125,-1.875
2.18,10.0,9.0,-2.0,-8.0,-5.0,-9.0,-1.0,-1.0,0.09149169921875,-0.018310546875,0.9937744140625,-0.06005859375,0.1826171875,-0.02978515625,1.005859375,-10.6875,3.3125,1.0625
2.185,-7.0,-24.0,-14.0,-3.0,3.0,-2.0,-4.0,-4.0,0.090087890625,-0.027587890625,0.99359130859375,-0.06158447265625,0.16455078125,-0.03369140625,0.99658203125,-19.125,0.125,1.8125
2.19,8.0,15.0,6.0,1.0,2.0,1.0,-6.0,0.0,0.09033203125,-0.031982421875,0.99334716796875,-0.0631103515625,0.17529296875,-0.0654296875,0.97412109375,-10.0625,0.0,0.5
2.195,0.0,9.0,0.0,1.0,-2.0,-5.0,-1.0,2.0,0.09173583984375,-0.0306396484375,0.9932861328125,-0.06298828125,0.1796875,-0.0625,0.9541015625,-3.125,-3.1875,-0.4375
2.2,-5.0,1.0,0.0,0.0,-4.0,-2.0,-9.0,-7.0,0.09521484375,-0.02874755859375,0.99298095703125,-0.06353759765625,0.19580078125,-0.06591796875,0.96875,-1.375,-3.0,1.5625
2.205,0.0,10.0,4.0,-1.0,-3.0,-4.0,-1.0,-3.0,0.1015625,-0.02655029296875,0.992431640625,-0.0633544921875,0.21484375,-0.05322265625,0.9775390625,3.4375,-5.125,-0.8125
2.21,-6.0,-16.0,-16.0,-3.0,-3.0,-3.0,2.0,5.0,0.106201171875,-0.0260009765625,0.991943359375,-0.063232421875,0.21044921875,-0.0546875,0.97607421875,3.75,-2.1875,-1.0
2.215,-3.0,-10.0,-11.0,-3.0,-2.0,-1.0,-5.0,-9.0,0.10693359375,-0.026611328125,0.99188232421875,-0.0631103515625,0.21435546875,-0.0654296875,0.984375,2.75,-0.0625,-0.5
2.22,3.0,17.0,-26.0,-9.0,0.0,0.0,-11.0,-16.0,0.10687255859375,-0.0262451171875,0.99188232421875,-0.06304931640625,0.21728515625,-0.06494140625,0.9716796875,3.0625,1.125,-1.375
2.225,-18.0,24.0,7.0,-1.0,1.0,-1.0,-11.0,-2.0,0.10400390625,-0.0235595703125,0.99237060546875,-0.06146240234375,0.20068359375,-0.05029296875,0.9794921875,2.3125,3.75,-1.4375
2.23,-8.0,19.0,10.0,5.0,1.0,1.0,22.0,10.0,0.10040283203125,-0.02203369140625,0.99285888671875,-0.060546875,0.19482421875,-0.0439453125,0.96240234375,-2.6875,3.1875,0.3125
2.235,-28.0,-6.0,-8.0,1.0,-1.0,-6.0,-10.0,-19.0,0.09710693359375,-0.02081298828125,0.9932861328125,-0.05877685546875,0.19580078125,-0.06298828125,0.9853515625,0.9375,2.0625,-1.9375
2.24,22.0,9.0,-4.0,4.0,9.0,18.0,11.0,-2.0,0.0941162109375,-0.0164794921875,0.9937744140625,-0.056396484375,0.17578125,-0.04150390625,0.9814453125,3.625,2.875,-2.875
2.245,-19.0,-20.0,-56.0,-5.0,0.0,-11.0,-8.0,-18.0,0.0914306640625,-0.012451171875,0.99420166015625,-0.054443359375,0.17138671875,-0.0234375,0.97119140625,1.5625,3.125,-1.3125
2.25,33.0,25.0,-53.0,-5.0,21.0,-9.0,8.0,-20.0,0.0899658203125,-0.01165771484375,0.99432373046875,-0.0546875,0.1494140625,-0.041015625,0.92919921875,-1.75,2.4375,3.625
2.255,-1.0,127.0,77.0,-1.0,-16.0,4.0,-3.0,28.0,0.09033203125,-0.00543212890625,0.99432373046875,-0.05584716796875,0.17138671875,-0.0029296875,0.970703125,-1.25,-2.875,5.875
2.26,10.0,39.0,19.0,-4.0,-2.0,6.0,4.0,12.0,0.0916748046875,-0.0067138671875,0.994140625,-0.05609130859375,0.17431640625,0.0927734375,1.0224609375,-0.6875,-1.125,-5.25
2.265,-18.0,-39.0,8.0,5.0,3.0,6.0,6.0,13.0,0.0928955078125,-0.0108642578125,0.99395751953125,-0.0570068359375,0.18310546875,-0.02197265625,0.98291015625,-3.3125,0.5,2.5
2.27,-5.0,2.0,-14.0,-8.0,-5.0,-6.0,1.0,2.0,0.0911865234375,-0.0260009765625,0.99371337890625,-0.05859375,0.17919921875,-0.1455078125,0.998046875,-20.3125,4.9375,6.6875
2.275,-7.0,-2.0,-9.0,-10.0,-2.0,0.0,-3.0,4.0,0.0897216796875,-0.03033447265625,0.99371337890625,-0.05889892578125,0.1923828125,-0.06982421875,0.986328125,-6.3125,1.625,-2.3125
2.28,-3.0,-2.0,-3.0,1.0,-1.0,0.0,-3.0,-5.0,0.0897216796875,-0.03314208984375,0.99365234375,-0.05865478515625,0.17919921875,-0.08056640625,0.98388671875,4.75,-0.4375,1.1875
2.285,1.0,16.0,-14.0,-6.0,-4.0,-2.0,0.0,1.0,0.09320068359375,-0.0318603515625,0.99346923828125,-0.05706787109375,0.18408203125,-0.052734375,0.96728515625,-0.875,-5.1875,-1.6875
2.29,2.0,5.0,-6.0,-3.0,-4.0,0.0,-3.0,-2.0,0.1009521484375,-0.03155517578125,0.9927978515625,-0.055419921875,0.19921875,-0.0693359375,0.95654296875,-1.1875,-8.9375,-1.375
2.295,-8.0,-6.0,-2.0,-4.0,-4.0,-2.0,-6.0,-4.0,0.10870361328125,-0.03167724609375,0.9920654296875,-0.05426025390625,0.21240234375,-0.0751953125,0.98046875,0.1875,-3.375,-0.25
2.3,-5.0,-13.0,-5.0,-1.0,-1.0,-2.0,-1.0,8.0,0.1092529296875,-0.03179931640625,0.99200439453125,-0.05419921875,0.2177734375,-0.07421875,0.98095703125,0.9375,0.75,-0.625
2.305,-8.0,-23.0,4.0,6.0,-2.0,-4.0,-12.0,-10.0,0.106689453125,-0.030517578125,0.99237060546875,-0.0535888671875,0.208984375,-0.06103515625,0.9716796875,2.75,3.8125,-0.875
2.31,-8.0,31.0,17.0,-1.0,-3.0,-4.0,-8.0,-4.0,0.10211181640625,-0.02691650390625,0.99298095703125,-0.052490234375,0.20703125,-0.03369140625,0.97607421875,2.375,5.5625,-1.625
2.315,-9.0,25.0,-1.0,-1.0,-2.0,-7.0,-3.0,-12.0,0.0980224609375,-0.02349853515625,0.99346923828125,-0.05255126953125,0.203125,-0.05810546875,0.9697265625,8.9375,2.5,-1.8125
2.32,1.0,46.0,-1.0,-3.0,-3.0,-6.0,-11.0,-8.0,0.0966796875,-0.02197265625,0.99365234375,-0.05255126953125,0.205078125,-0.05859375,0.9833984375,6.5,0.75,-0.125
2.325,7.0,60.0,8.0,1.0,0.0,0.0,-12.0,2.0,0.095703125,-0.0203857421875,0.9937744140625,-0.052978515625,0.18603515625,-0.05908203125,0.97314453125,4.9375,-1.0,0.6875
2.33,24.0,-16.0,18.0,4.0,-10.0,-5.0,14.0,7.0,0.0960693359375,-0.0120849609375,0.993896484375,-0.05230712890625,0.19189453125,-0.03076171875,0.99267578125,7.5,-0.25,-3.0625
2.335,-34.0,-43.0,37.0,14.0,2.0,4.0,7.0,14.0,0.09588623046875,-0.0064697265625,0.9940185546875,-0.051513671875,0.166015625,0.03857421875,0.97509765625,-1.9375,0.3125,-3.6875
2.34,27.0,13.0,-8.0,-4.0,-1.0,22.0,-5.0,0.0,0.09783935546875,-0.011474609375,0.99371337890625,-0.052734375,0.20263671875,-0.0869140625,0.94775390625,-8.6875,-1.0625,4.875
2.345,-17.0,19.0,6.0,-11.0,-6.0,-10.0,-7.0,8.0,0.0989990234375,-0.012939453125,0.99365234375,-0.05169677734375,0.20556640625,-0.0341796875,0.9755859375,-4.8125,-0.0625,-0.5
2.35,2.0,-22.0,-14.0,3.0,-1.0,-2.0,-2.0,0.0,0.0965576171875,-0.0294189453125,0.99334716796875,-0.05511474609375,0.17333984375,-0.1884765625,0.97607421875,-7.3125,-0.3125,7.6875
2.355,-3.0,31.0,12.0,-1.0,-5.0,-2.0,-3.0,6.0,0.09454345703125,-0.03057861328125,0.99346923828125,-0.0560302734375,0.18505859375,-0.08154296875,1.00244140625,-21.9375,2.8125,4.25
2.36,-4.0,1.0,-4.0,-2.0,1.0,2.0,3.0,-5.0,0.09320068359375,-0.03289794921875,0.993408203125,-0.0572509765625,0.2001953125,-0.09375,0.970703125,-6.0625,1.625,1.625
2.365,-4.0,-32.0,0.0,3.0,0.0,1.0,4.0,8.0,0.09521484375,-0.0330810546875,0.9931640625,-0.05816650390625,0.18603515625,-0.08447265625,0.97216796875,6.125,-3.875,0.5
2.37,-4.0,-16.0,-7.0,-1.0,2.0,2.0,-2.0,-1.0,0.099365234375,-0.0308837890625,0.9927978515625,-0.05877685546875,0.19970703125,-0.09326171875,0.984375,2.3125,-4.5625,0.4375
2.375,-2.0,-12.0,-14.0,-8.0,-2.0,-4.0,7.0,4.0,0.10174560546875,-0.029296875,0.9925537109375,-0.0594482421875,0.19921875,-0.068359375,0.98583984375,0.3125,-1.9375,1.0625
2.38,2.0,-27.0,-21.0,-2.0,3.0,2.0,0.0,-3.0,0.10162353515625,-0.02813720703125,0.9925537109375,-0.0609130859375,0.1982421875,-0.05859375,0.98095703125,2.0,1.25,0.8125
2.385,-2.0,-7.0,-5.0,-4.0,-1.0,1.0,-8.0,-9.0,0.1002197265625,-0.02496337890625,0.99273681640625,-0.06170654296875,0.203125,-0.06103515625,0.9716796875,3.625,1.8125,0.0625
2.39,-15.0,11.0,3.0,1.0,0.0,0.0,-1.0,-7.0,0.098388671875,-0.023193359375,0.9930419921875,-0.06036376953125,0.19775390625,-0.06494140625,0.9765625,5.0625,0.75,-3.4375
2.395,-3.0,-1.0,8.0,3.0,3.0,0.0,-4.0,-3.0,0.0963134765625,-0.02178955078125,0.9932861328125,-0.0596923828125,0.2109375,-0.07666015625,0.98486328125,5.1875,1.5,-2.8125
2.4,29.0,32.0,17.0,1.0,-5.0,-7.0,0.0,35.0,0.09246826171875,-0.017822265625,0.99365234375,-0.06072998046875,0.18017578125,-0.0654296875,0.9765625,6.0,1.3125,0.8125
2.405,-23.0,-31.0,-23.0,-6.0,-2.0,6.0,-6.0,-6.0,0.09283447265625,-0.01348876953125,0.99365234375,-0.0618896484375,0.1943359375,-0.0732421875,0.9775390625,6.875,-0.3125,2.375
2.41,-4.0,48.0,-21.0,-3.0,-3.0,-8.0,-12.0,6.0,0.09075927734375,-0.0096435546875,0.9937744140625,-0.0635986328125,0.17529296875,-0.017578125,0.9736328125,0.9375,1.625,0.375
2.415,-18.0,-72.0,-8.0,-3.0,1.0,-6.0,2.0,4.0,0.08984375,-0.005859375,0.993896484375,-0.0634765625,0.1669921875,-0.00341796875,0.974609375,1.5,1.625,-1.25
2.42,-44.0,-71.0,-75.0,-18.0,-10.0,-34.0,-24.0,-69.0,0.09033203125,-0.00531005859375,0.99371337890625,-0.06524658203125,0.15966796875,-0.0078125,0.97021484375,1.125,0.625,2.125
2.425,-1.0,18.0,8.0,-11.0,-10.0,8.0,6.0,-3.0,0.091796875,-0.00640869140625,0.99346923828125,-0.06689453125,0.19873046875,-0.00341796875,0.978515625,0.875,0.5625,0.8125
2.43,-9.0,-23.0,-6.0,-7.0,-5.0,-19.0,-9.0,13.0,0.09228515625,-0.00579833984375,0.993408203125,-0.0672607421875,0.19140625,0.01513671875,0.994140625,0.125,1.1875,-1.9375
2.435,-2.0,21.0,10.0,-1.0,2.0,-3.0,7.0,4.0,0.09259033203125,-0.010986328125,0.9932861328125,-0.0682373046875,0.19140625,-0.0634765625,0.98486328125,-9.6875,1.75,4.9375
2.44,-4.0,4.0,1.0,-2.0,0.0,-2.0,-3.0,-12.0,0.09136962890625,-0.01739501953125,0.99322509765625,-0.06939697265625,0.2021484375,-0.083984375,0.98583984375,-7.9375,-0.3125,3.4375
2.445,7.0,3.0,0.0,0.0,3.0,1.0,9.0,11.0,0.09014892578125,-0.02386474609375,0.99322509765625,-0.06884765625,0.19287109375,-0.08447265625,0.98486328125,-9.0625,0.75,0.0
2.45,-3.0,5.0,16.0,4.0,-1.0,-2.0,-7.0,5.0,0.09246826171875,-0.02392578125,0.9930419921875,-0.06854248046875,0.197265625,-0.07666015625,0.9833984375,-1.3125,-1.9375,-0.5
2.455,-6.0,-4.0,-2.0,-2.0,-3.0,-2.0,-4.0,-3.0,0.09490966796875,-0.0225830078125,0.99285888671875,-0.06854248046875,0.18505859375,-0.05712890625,0.9775390625,-0.9375,-3.4375,-1.25
2.46,-2.0,11.0,0.0,0.0,-2.0,-1.0,-4.0,-7.0,0.1007080078125,-0.02337646484375,0.9923095703125,-0.06787109375,0.19873046875,-0.0625,0.974609375,-2.625,-5.5,-0.3125
2.465,4.0,27.0,18.0,2.0,-3.0,0.0,2.0,-2.0,0.10467529296875,-0.023681640625,0.99188232421875,-0.06732177734375,0.205078125,-0.052734375,0.98486328125,-1.75,-1.625,-0.625
2.47,2.0,-18.0,-3.0,1.0,0.0,1.0,1.0,1.0,0.10540771484375,-0.02349853515625,0.99188232421875,-0.0667724609375,0.2080078125,-0.0546875,0.97314453125,-2.8125,1.125,-0.8125
2.475,-1.0,35.0,12.0,1.0,-3.0,-3.0,0.0,-5.0,0.1048583984375,-0.024658203125,0.991943359375,-0.066162109375,0.2099609375,-0.056640625,0.97607421875,-2.5,1.1875,-0.375
2.48,-11.0,-42.0,-5.0,0.0,-3.0,-7.0,-8.0,-4.0,0.10345458984375,-0.02667236328125,0.9920654296875,-0.0660400390625,0.20263671875,-0.07373046875,0.9736328125,-3.6875,1.3125,0.6875
2.485,0.0,-4.0,-3.0,0.0,1.0,-3.0,-4.0,-6.0,0.1015625,-0.0274658203125,0.9921875,-0.066650390625,0.20556640625,-0.06103515625,0.97314453125,-0.4375,2.4375,1.125
2.49,3.0,7.0,0.0,0.0,-3.0,-2.0,-1.0,3.0,0.1007080078125,-0.026123046875,0.9923095703125,-0.06658935546875,0.201171875,-0.05126953125,0.97021484375,3.875,1.25,-1.0
2.495,-8.0,-29.0,3.0,-4.0,-3.0,-3.0,1.0,5.0,0.09869384765625,-0.0245361328125,0.99249267578125,-0.0672607421875,0.1904296875,-0.05517578125,0.9833984375,3.8125,2.25,0.4375
2.5,-15.0,-35.0,-7.0,-3.0,-1.0,1.0,-7.0,-9.0,0.0968017578125,-0.0208740234375,0.99285888671875,-0.06634521484375,0.19580078125,-0.05712890625,0.97509765625,3.4375,1.3125,-1.9375
2.505,57.0,79.0,46.0,3.0,-7.0,-10.0,16.0,4.0,0.09588623046875,-0.01654052734375,0.9930419921875,-0.0660400390625,0.18310546875,-0.037109375,0.9697265625,4.9375,0.9375,-0.625
2.51,1.0,5.0,-2.0,3.0,3.0,1.0,10.0,-1.0,0.0966796875,-0.01287841796875,0.99298095703125,-0.0665283203125,0.1865234375,-0.0390625,0.9765625,2.5,-0.625,1.375
2.515,-58.0,-25.0,14.0,-6.0,-5.0,1.0,13.0,11.0,0.0975341796875,-0.01171875,0.992919921875,-0.06622314453125,0.19189453125,-0.05126953125,0.9599609375,0.25,-2.0625,-0.6875
2.52,14.0,-28.0,58.0,-10.0,-20.0,-32.0,-22.0,8.0,0.099853515625,-0.01214599609375,0.99261474609375,-0.067138671875,0.20556640625,-0.0537109375,0.96337890625,-6.0625,-1.6875,4.375
2.525,-19.0,65.0,8.0,-8.0,-3.0,3.0,4.0,-17.0,0.10009765625,-0.0147705078125,0.9925537109375,-0.067138671875,0.20751953125,-0.06005859375,0.9951171875,-2.75,2.0,0.5
2.53,8.0,20.0,-12.0,5.0,3.0,-5.0,6.0,-2.0,0.0977783203125,-0.01947021484375,0.99285888671875,-0.06512451171875,0.19384765625,-0.01220703125,0.95849609375,-20.75,3.1875,-1.125
2.535,-2.0,-6.0,-11.0,-1.0,2.0,1.0,-1.0,-5.0,0.09661865234375,-0.0286865234375,0.99249267578125,-0.06854248046875,0.18212890625,-0.0751953125,0.9599609375,20.0,-0.8125,-3.9375
2.54,-9.0,8.0,4.0,4.0,3.0,2.0,-1.0,-3.0,0.0955810546875,-0.03387451171875,0.9925537109375,-0.06719970703125,0.18994140625,-0.07275390625,0.98876953125,3.9375,1.375,-1.875
2.545,8.0,-13.0,-37.0,-6.0,-2.0,-1.0,-3.0,1.0,0.09625244140625,-0.03033447265625,0.99267578125,-0.06573486328125,0.212890625,-0.05029296875,0.97509765625,3.1875,-0.5,-2.1875
2.55,-1.0,-31.0,1.0,2.0,1.0,0.0,1.0,0.0,0.09722900390625,-0.03125,0.99267578125,-0.064208984375,0.19287109375,-0.0615234375,0.9755859375,3.125,-1.4375,-3.125
2.555,-7.0,5.0,5.0,0.0,0.0,0.0,-1.0,-3.0,0.0999755859375,-0.03106689453125,0.992431640625,-0.06396484375,0.19140625,-0.08642578125,0.97021484375,1.8125,-3.875,0.125
2.56,-1.0,-14.0,-2.0,0.0,-2.0,-2.0,3.0,8.0,0.1015625,-0.0323486328125,0.99224853515625,-0.06378173828125,0.20751953125,-0.095703125,0.99072265625,-2.1875,0.25,1.0625
2.565,-4.0,-5.0,-5.0,-3.0,-1.0,0.0,4.0,1.0,0.100830078125,-0.03265380859375,0.99224853515625,-0.0640869140625,0.2021484375,-0.08251953125,0.9814453125,0.125,0.5625,-0.0625
2.57,0.0,37.0,10.0,-4.0,-2.0,0.0,4.0,6.0,0.10009765625,-0.0321044921875,0.99237060546875,-0.0638427734375,0.19677734375,-0.07568359375,0.97607421875,0.3125,1.625,-0.75
2.575,-7.0,-38.0,-1.0,-7.0,-8.0,-6.0,-14.0,-3.0,0.09906005859375,-0.031005859375,0.99261474609375,-0.0623779296875,0.1962890625,-0.07080078125,0.9873046875,-0.5,3.3125,-0.1875
2.58,-2.0,-35.0,-6.0,2.0,0.0,0.0,2.0,6.0,0.09600830078125,-0.0277099609375,0.99310302734375,-0.06121826171875,0.18359375,-0.03515625,0.986328125,-3.6875,5.0625,-0.6875
2.585,-30.0,-96.0,-49.0,-8.0,-2.0,3.0,20.0,-1.0,0.09320068359375,-0.0235595703125,0.99346923828125,-0.06097412109375,0.1787109375,-0.03466796875,0.970703125,3.4375,2.25,0.0625
2.59,25.0,85.0,67.0,7.0,2.0,-3.0,-5.0,0.0,0.09320068359375,-0.01971435546875,0.99359130859375,-0.0601806640625,0.189453125,-0.041015625,0.9794921875,6.4375,-1.0625,-0.4375
2.595,-14.0,-8.0,2.0,2.0,-1.0,-10.0,2.0,11.0,0.09454345703125,-0.017578125,0.9935302734375,-0.05950927734375,0.181640625,-0.0185546875,0.98095703125,-5.125,-0.5,1.1875
2.6,-32.0,-19.0,9.0,-3.0,-7.0,-15.0,14.0,3.0,0.0946044921875,-0.017822265625,0.9935302734375,-0.06011962890625,0.17041015625,-0.03076171875,0.9580078125,-4.0625,-0.4375,2.25
2.605,19.0,43.0,19.0,0.0,2.0,13.0,7.0,3.0,0.0960693359375,-0.017578125,0.99334716796875,-0.060546875,0.1923828125,-0.03515625,0.99462890625,-1.8125,-2.3125,0.9375
2.61,4.0,-10.0,-21.0,0.0,4.0,27.0,-24.0,23.0,0.09735107421875,-0.0186767578125,0.9931640625,-0.0609130859375,0.2216796875,-0.04541015625,0.9755859375,-0.5625,-0.75,-0.5
2.615,6.0,-13.0,4.0,2.0,0.0,-8.0,-3.0,16.0,0.0975341796875,-0.020751953125,0.9931640625,-0.0599365234375,0.201171875,-0.04638671875,0.96728515625,-4.6875,0.0,-0.0625
2.62,-6.0,-3.0,-14.0,-10.0,-10.0,-4.0,-6.0,-6.0,0.0963134765625,-0.03570556640625,0.9925537109375,-0.0645751953125,0.17041015625,-0.10595703125,0.9580078125,13.8125,1.8125,5.5625
2.625,1.0,-3.0,0.0,2.0,-2.0,-3.0,-6.0,-5.0,0.09503173828125,-0.04083251953125,0.99267578125,-0.06207275390625,0.17822265625,-0.0947265625,0.9990234375,-6.5,1.4375,-1.625
2.63,-25.0,11.0,-8.0,-4.0,-2.0,-4.0,-6.0,-8.0,0.095947265625,-0.03466796875,0.992919921875,-0.0604248046875,0.19775390625,-0.07958984375,0.96875,-2.3125,-0.625,-4.0
2.635,6.0,0.0,7.0,1.0,-5.0,-3.0,2.0,4.0,0.095947265625,-0.0355224609375,0.99298095703125,-0.059326171875,0.19189453125,-0.10205078125,0.97998046875,-6.0,-1.25,0.125
2.64,3.0,-33.0,12.0,1.0,-6.0,-4.0,-12.0,-5.0,0.096923828125,-0.03326416015625,0.99285888671875,-0.060791015625,0.19189453125,-0.060546875,0.96875,-0.4375,-2.3125,0.375
2.645,1.0,16.0,-1.0,0.0,-2.0,-2.0,2.0,2.0,0.10107421875,-0.03240966796875,0.99237060546875,-0.06256103515625,0.2080078125,-0.08544921875,0.97998046875,2.4375,-2.25,1.75
2.65,0.0,-10.0,-9.0,-5.0,-4.0,-1.0,-4.0,-8.0,0.10186767578125,-0.03057861328125,0.99224853515625,-0.06365966796875,0.205078125,-0.0576171875,0.974609375,0.5625,-0.0625,-0.4375
2.655,-21.0,-19.0,-21.0,-10.0,-6.0,-3.0,-5.0,-13.0,0.101318359375,-0.02874755859375,0.99237060546875,-0.06402587890625,0.2021484375,-0.0654296875,0.9697265625,3.375,1.625,0.875
2.66,-39.0,-82.0,-51.0,-19.0,-9.0,-7.0,20.0,-2.0,0.0986328125,-0.0247802734375,0.99273681640625,-0.06427001953125,0.1953125,-0.04443359375,0.98046875,4.6875,3.25,0.1875
2.665,11.0,19.0,-19.0,-7.0,-3.0,2.0,11.0,-3.0,0.0938720703125,-0.02166748046875,0.9931640625,-0.06494140625,0.18994140625,-0.06689453125,0.9755859375,4.75,4.1875,1.0625
2.67,-43.0,0.0,6.0,-3.0,-4.0,-2.0,-8.0,24.0,0.09100341796875,-0.01812744140625,0.9935302734375,-0.06500244140625,0.1806640625,-0.0390625,0.96923828125,2.0,3.3125,-1.0625
2.675,-7.0,18.0,-7.0,-3.0,-1.0,1.0,-6.0,-1.0,0.08978271484375,-0.014404296875,0.99371337890625,-0.06463623046875,0.16552734375,-0.00927734375,0.96142578125,5.6875,0.8125,-1.125
2.68,-10.0,29.0,11.0,-9.0,-7.0,-10.0,-35.0,-20.0,0.09002685546875,-0.0115966796875,0.99371337890625,-0.06475830078125,0.1748046875,-0.0263671875,0.98779296875,6.8125,-0.25,-0.75
2.685,-22.0,-9.0,20.0,11.0,7.0,14.0,-5.0,0.0,0.09039306640625,-0.0111083984375,0.99365234375,-0.06597900390625,0.18994140625,-0.04052734375,0.9912109375,1.375,-1.8125,2.75
2.69,-22.0,-26.0,2.0,16.0,2.0,-6.0,12.0,6.0,0.09210205078125,-0.01171875,0.99346923828125,-0.0662841796875,0.18798828125,-0.01318359375,0.97119140625,-3.25,-0.6875,1.5
2.695,-6.0,-22.0,-2.0,-8.0,-3.0,-4.0,3.0,-8.0,0.0931396484375,-0.0123291015625,0.9932861328125,-0.06719970703125,0.19384765625,-0.02783203125,0.9697265625,-2.25,-0.6875,0.8125
2.7,-5.0,30.0,-12.0,-13.0,-1.0,8.0,0.0,7.0,0.0916748046875,-0.01904296875,0.99322509765625,-0.06805419921875,0.19189453125,-0.07421875,1.02197265625,-5.5,3.25,2.9375
2.705,-1.0,12.0,4.0,-2.0,-1.0,-1.0,-4.0,-13.0,0.08892822265625,-0.02081298828125,0.993408203125,-0.06915283203125,0.1865234375,-0.01513671875,0.984375,-2.5,5.5625,-2.6875
2.71,0.0,-21.0,-9.0,-6.0,2.0,3.0,0.0,1.0,0.08709716796875,-0.02484130859375,0.993408203125,-0.0697021484375,0.18212890625,-0.07470703125,0.98046875,12.0625,1.5,-1.4375
2.715,3.0,-5.0,4.0,7.0,0.0,-1.0,-5.0,-4.0,0.0889892578125,-0.0255126953125,0.99334716796875,-0.0682373046875,0.181640625,-0.05810546875,0.98095703125,5.25,-3.625,-2.875
2.72,-1.0,2.0,1.0,-5.0,-4.0,-2.0,-4.0,9.0,0.09130859375,-0.0257568359375,0.99310302734375,-0.068603515625,0.17529296875,-0.0537109375,0.97607421875,-0.1875,-1.6875,-0.875
2.725,-7.0,-3.0,-9.0,-4.0,-3.0,-2.0,-4.0,-8.0,0.09368896484375,-0.02734375,0.9927978515625,-0.0687255859375,0.19140625,-0.076171875,0.9775390625,-2.0,-2.625,1.0
2.73,-10.0,-14.0,3.0,-1.0,-3.0,-3.0,7.0,1.0,0.09429931640625,-0.027587890625,0.99273681640625,-0.06866455078125,0.1865234375,-0.07373046875,0.98828125,-0.625,0.0,-0.125
